build	computer.platform	date	time	subject	group	sessionid	blockcode	blocknum	trialcode	trialnum	testduration	targetcolor	targetsize	fixed	targetx	targety	stiminterval	trialStart	shape.targetcircle.timestamp	lastCircleTimestamp	response	rt_elapsed	rt	EarlyResponse	countEarlyResponses	countResponses
6.1.1	win	2020-04-03	16:21:46	1	1	1	USRTblock	1	USRT	3	600000	#ff0000	10pct	1	50pct	50pct	3000	6481	9486	5949	57	9728	242	0	0	1
6.1.1	win	2020-04-03	16:21:46	1	1	1	USRTblock	1	USRT	4	600000	#ff0000	10pct	1	50pct	50pct	7000	9743	16752	9486	57	16998	246	0	0	2
6.1.1	win	2020-04-03	16:21:46	1	1	1	USRTblock	1	USRT	5	600000	#ff0000	10pct	1	50pct	50pct	3000	17001	20019	16752	57	20254	235	0	0	3
6.1.1	win	2020-04-03	16:21:46	1	1	1	USRTblock	1	USRT	6	600000	#ff0000	10pct	1	50pct	50pct	8000	20258	28268	20019	57	28564	296	0	0	4
6.1.1	win	2020-04-03	16:21:46	1	1	1	USRTblock	1	USRT	7	600000	#ff0000	10pct	1	50pct	50pct	3000	28568	31583	28268	57	31921	338	0	0	5
6.1.1	win	2020-04-03	16:21:46	1	1	1	USRTblock	1	USRT	8	600000	#ff0000	10pct	1	50pct	50pct	3000	31924	34933	31583	57	35240	307	0	0	6
6.1.1	win	2020-04-03	16:21:46	1	1	1	USRTblock	1	USRT	9	600000	#ff0000	10pct	1	50pct	50pct	2000	35243	37250	34933	57	37567	317	0	0	7
6.1.1	win	2020-04-03	16:21:46	1	1	1	USRTblock	1	USRT	10	600000	#ff0000	10pct	1	50pct	50pct	7000	37571	44583	37250	57	44859	276	0	0	8
6.1.1	win	2020-04-03	16:21:46	1	1	1	USRTblock	1	USRT	11	600000	#ff0000	10pct	1	50pct	50pct	3000	44862	47882	44583	57	48083	201	0	0	9
6.1.1	win	2020-04-03	16:21:46	1	1	1	USRTblock	1	USRT	12	600000	#ff0000	10pct	1	50pct	50pct	8000	48086	56098	47882	57	56355	257	0	0	10
6.1.1	win	2020-04-03	16:21:46	1	1	1	USRTblock	1	USRT	13	600000	#ff0000	10pct	1	50pct	50pct	8000	56359	64364	56098	57	64800	436	0	0	11
6.1.1	win	2020-04-03	16:21:46	1	1	1	USRTblock	1	USRT	14	600000	#ff0000	10pct	1	50pct	50pct	2000	64803	66814	64364	57	67183	369	0	0	12
6.1.1	win	2020-04-03	16:21:46	1	1	1	USRTblock	1	USRT	15	600000	#ff0000	10pct	1	50pct	50pct	5000	67187	72196	66814	57	72479	283	0	0	13
6.1.1	win	2020-04-03	16:21:46	1	1	1	USRTblock	1	USRT	16	600000	#ff0000	10pct	1	50pct	50pct	7000	72482	79496	72196	57	79900	404	0	0	14
6.1.1	win	2020-04-03	16:21:46	1	1	1	USRTblock	1	USRT	17	600000	#ff0000	10pct	1	50pct	50pct	8000	79903	87912	79496	57	88185	273	0	0	15
6.1.1	win	2020-04-03	16:21:46	1	1	1	USRTblock	1	USRT	18	600000	#ff0000	10pct	1	50pct	50pct	4000	88189	92195	87912	57	92508	313	0	0	16
6.1.1	win	2020-04-03	16:21:46	1	1	1	USRTblock	1	USRT	19	600000	#ff0000	10pct	1	50pct	50pct	4000	92511	96527	92195	57	96811	284	0	0	17
6.1.1	win	2020-04-03	16:21:46	1	1	1	USRTblock	1	USRT	20	600000	#ff0000	10pct	1	50pct	50pct	5000	96814	101827	96527	57	102121	294	0	0	18
6.1.1	win	2020-04-03	16:21:46	1	1	1	USRTblock	1	USRT	21	600000	#ff0000	10pct	1	50pct	50pct	6000	102125	108143	101827	57	108403	260	0	0	19
6.1.1	win	2020-04-03	16:21:46	1	1	1	USRTblock	1	USRT	22	600000	#ff0000	10pct	1	50pct	50pct	3000	108407	111426	108143	57	111695	269	0	0	20
6.1.1	win	2020-04-03	16:21:46	1	1	1	USRTblock	1	USRT	23	600000	#ff0000	10pct	1	50pct	50pct	2000	111699	113709	111426	57	114020	311	0	0	21
6.1.1	win	2020-04-03	16:21:46	1	1	1	USRTblock	1	USRT	24	600000	#ff0000	10pct	1	50pct	50pct	8000	114023	122042	113709	57	122309	267	0	0	22
6.1.1	win	2020-04-03	16:21:46	1	1	1	USRTblock	1	USRT	25	600000	#ff0000	10pct	1	50pct	50pct	3000	122313	125324	122042	57	125640	316	0	0	23
6.1.1	win	2020-04-03	16:21:46	1	1	1	USRTblock	1	USRT	26	600000	#ff0000	10pct	1	50pct	50pct	7000	125643	132658	125324	57	133129	471	0	0	24
6.1.1	win	2020-04-03	16:21:46	1	1	1	USRTblock	1	USRT	27	600000	#ff0000	10pct	1	50pct	50pct	8000	133133	141140	132658	57	141438	298	0	0	25
6.1.1	win	2020-04-03	16:21:46	1	1	1	USRTblock	1	USRT	28	600000	#ff0000	10pct	1	50pct	50pct	7000	141442	148455	141140	57	148770	315	0	0	26
6.1.1	win	2020-04-03	16:21:46	1	1	1	USRTblock	1	USRT	29	600000	#ff0000	10pct	1	50pct	50pct	8000	148773	156788	148455	57	157136	348	0	0	27
6.1.1	win	2020-04-03	16:21:46	1	1	1	USRTblock	1	USRT	30	600000	#ff0000	10pct	1	50pct	50pct	4000	157140	161154	156788	57	161449	295	0	0	28
6.1.1	win	2020-04-03	16:21:46	1	1	1	USRTblock	1	USRT	31	600000	#ff0000	10pct	1	50pct	50pct	7000	161453	168470	161154	57	168770	300	0	0	29
6.1.1	win	2020-04-03	16:21:46	1	1	1	USRTblock	1	USRT	32	600000	#ff0000	10pct	1	50pct	50pct	4000	168774	172786	168470	57	173035	249	0	0	30
6.1.1	win	2020-04-03	16:21:46	1	1	1	USRTblock	1	USRT	33	600000	#ff0000	10pct	1	50pct	50pct	3000	173039	176052	172786	57	176324	272	0	0	31
6.1.1	win	2020-04-03	16:21:46	1	1	1	USRTblock	1	USRT	34	600000	#ff0000	10pct	1	50pct	50pct	8000	176327	184335	176052	57	184566	231	0	0	32
6.1.1	win	2020-04-03	16:21:46	1	1	1	USRTblock	1	USRT	35	600000	#ff0000	10pct	1	50pct	50pct	7000	184570	191585	184335	57	191833	248	0	0	33
6.1.1	win	2020-04-03	16:21:46	1	1	1	USRTblock	1	USRT	36	600000	#ff0000	10pct	1	50pct	50pct	8000	191836	199850	191585	57	200082	232	0	0	34
6.1.1	win	2020-04-03	16:21:46	1	1	1	USRTblock	1	USRT	37	600000	#ff0000	10pct	1	50pct	50pct	7000	200086	207100	199850	57	207382	282	0	0	35
6.1.1	win	2020-04-03	16:21:46	1	1	1	USRTblock	1	USRT	38	600000	#ff0000	10pct	1	50pct	50pct	7000	207386	214399	207100	57	214701	302	0	0	36
6.1.1	win	2020-04-03	16:21:46	1	1	1	USRTblock	1	USRT	39	600000	#ff0000	10pct	1	50pct	50pct	4000	214705	218715	214399	57	219025	310	0	0	37
6.1.1	win	2020-04-03	16:21:46	1	1	1	USRTblock	1	USRT	40	600000	#ff0000	10pct	1	50pct	50pct	5000	219028	224048	218715	57	224306	258	0	0	38
6.1.1	win	2020-04-03	16:21:46	1	1	1	USRTblock	1	USRT	41	600000	#ff0000	10pct	1	50pct	50pct	3000	224310	227314	224048	57	227825	511	0	0	39
6.1.1	win	2020-04-03	16:21:46	1	1	1	USRTblock	1	USRT	42	600000	#ff0000	10pct	1	50pct	50pct	8000	227828	235847	227314	57	236210	363	0	0	40
6.1.1	win	2020-04-03	16:21:46	1	1	1	USRTblock	1	USRT	43	600000	#ff0000	10pct	1	50pct	50pct	2000	236213	238230	235847	57	238612	382	0	0	41
6.1.1	win	2020-04-03	16:21:46	1	1	1	USRTblock	1	USRT	44	600000	#ff0000	10pct	1	50pct	50pct	6000	238617	244630	238230	57	244890	260	0	0	42
6.1.1	win	2020-04-03	16:21:46	1	1	1	USRTblock	1	USRT	45	600000	#ff0000	10pct	1	50pct	50pct	5000	244893	249912	244630	57	250175	263	0	0	43
6.1.1	win	2020-04-03	16:21:46	1	1	1	USRTblock	1	USRT	46	600000	#ff0000	10pct	1	50pct	50pct	4000	250179	254195	249912	57	254481	286	0	0	44
6.1.1	win	2020-04-03	16:21:46	1	1	1	USRTblock	1	USRT	47	600000	#ff0000	10pct	1	50pct	50pct	7000	254485	261494	254195	57	261744	250	0	0	45
6.1.1	win	2020-04-03	16:21:46	1	1	1	USRTblock	1	USRT	48	600000	#ff0000	10pct	1	50pct	50pct	3000	261748	264760	261494	57	265188	428	0	0	46
6.1.1	win	2020-04-03	16:21:46	1	1	1	USRTblock	1	USRT	49	600000	#ff0000	10pct	1	50pct	50pct	5000	265191	270210	264760	57	270474	264	0	0	47
6.1.1	win	2020-04-03	16:21:46	1	1	1	USRTblock	1	USRT	50	600000	#ff0000	10pct	1	50pct	50pct	6000	270478	276493	270210	57	276806	313	0	0	48
6.1.1	win	2020-04-03	16:21:46	1	1	1	USRTblock	1	USRT	51	600000	#ff0000	10pct	1	50pct	50pct	7000	276810	283825	276493	57	284139	314	0	0	49
6.1.1	win	2020-04-03	16:21:46	1	1	1	USRTblock	1	USRT	52	600000	#ff0000	10pct	1	50pct	50pct	5000	284143	289158	283825	57	289579	421	0	0	50
6.1.1	win	2020-04-03	16:21:46	1	1	1	USRTblock	1	USRT	53	600000	#ff0000	10pct	1	50pct	50pct	8000	289583	297591	289158	57	297844	253	0	0	51
6.1.1	win	2020-04-03	16:21:46	1	1	1	USRTblock	1	USRT	54	600000	#ff0000	10pct	1	50pct	50pct	8000	297847	305857	297591	57	306164	307	0	0	52
6.1.1	win	2020-04-03	16:21:46	1	1	1	USRTblock	1	USRT	55	600000	#ff0000	10pct	1	50pct	50pct	2000	306168	308189	305857	57	308547	358	0	0	53
6.1.1	win	2020-04-03	16:21:46	1	1	1	USRTblock	1	USRT	56	600000	#ff0000	10pct	1	50pct	50pct	3000	308551	311572	308189	57	311943	371	0	0	54
6.1.1	win	2020-04-03	16:21:46	1	1	1	USRTblock	1	USRT	57	600000	#ff0000	10pct	1	50pct	50pct	4000	311948	315955	311572	57	316272	317	0	0	55
6.1.1	win	2020-04-03	16:21:46	1	1	1	USRTblock	1	USRT	58	600000	#ff0000	10pct	1	50pct	50pct	5000	316275	-1	315955	57	319823	0	1	1	56
6.1.1	win	2020-04-03	16:21:46	1	1	1	USRTblock	1	USRT	59	600000	#ff0000	10pct	1	50pct	50pct	2000	319826	321838	-1	57	322182	344	0	1	57
6.1.1	win	2020-04-03	16:21:46	1	1	1	USRTblock	1	USRT	60	600000	#ff0000	10pct	1	50pct	50pct	7000	322186	329205	321838	57	329490	285	0	1	58
6.1.1	win	2020-04-03	16:21:46	1	1	1	USRTblock	1	USRT	61	600000	#ff0000	10pct	1	50pct	50pct	4000	329494	333502	329205	57	333785	283	0	1	59
6.1.1	win	2020-04-03	16:21:46	1	1	1	USRTblock	1	USRT	62	600000	#ff0000	10pct	1	50pct	50pct	6000	333789	339803	333502	57	340143	340	0	1	60
6.1.1	win	2020-04-03	16:21:46	1	1	1	USRTblock	1	USRT	63	600000	#ff0000	10pct	1	50pct	50pct	4000	340146	344153	339803	57	344508	355	0	1	61
6.1.1	win	2020-04-03	16:21:46	1	1	1	USRTblock	1	USRT	64	600000	#ff0000	10pct	1	50pct	50pct	4000	344512	348519	344153	57	348785	266	0	1	62
6.1.1	win	2020-04-03	16:21:46	1	1	1	USRTblock	1	USRT	65	600000	#ff0000	10pct	1	50pct	50pct	4000	348788	352801	348519	57	353067	266	0	1	63
6.1.1	win	2020-04-03	16:21:46	1	1	1	USRTblock	1	USRT	66	600000	#ff0000	10pct	1	50pct	50pct	7000	353070	360084	352801	57	360330	246	0	1	64
6.1.1	win	2020-04-03	16:21:46	1	1	1	USRTblock	1	USRT	67	600000	#ff0000	10pct	1	50pct	50pct	7000	360334	367350	360084	57	367598	248	0	1	65
6.1.1	win	2020-04-03	16:21:46	1	1	1	USRTblock	1	USRT	68	600000	#ff0000	10pct	1	50pct	50pct	3000	367602	370616	367350	57	370931	315	0	1	66
6.1.1	win	2020-04-03	16:21:46	1	1	1	USRTblock	1	USRT	69	600000	#ff0000	10pct	1	50pct	50pct	7000	370935	377949	370616	57	378301	352	0	1	67
6.1.1	win	2020-04-03	16:21:46	1	1	1	USRTblock	1	USRT	70	600000	#ff0000	10pct	1	50pct	50pct	4000	378304	382316	377949	57	382618	302	0	1	68
6.1.1	win	2020-04-03	16:21:46	1	1	1	USRTblock	1	USRT	71	600000	#ff0000	10pct	1	50pct	50pct	2000	382621	384632	382316	57	385214	582	0	1	69
6.1.1	win	2020-04-03	16:21:46	1	1	1	USRTblock	1	USRT	72	600000	#ff0000	10pct	1	50pct	50pct	6000	385217	391231	384632	57	391487	256	0	1	70
6.1.1	win	2020-04-03	16:21:46	1	1	1	USRTblock	1	USRT	73	600000	#ff0000	10pct	1	50pct	50pct	8000	391491	399497	391231	57	399744	247	0	1	71
6.1.1	win	2020-04-03	16:21:46	1	1	1	USRTblock	1	USRT	74	600000	#ff0000	10pct	1	50pct	50pct	8000	399747	407764	399497	57	408006	242	0	1	72
6.1.1	win	2020-04-03	16:21:46	1	1	1	USRTblock	1	USRT	75	600000	#ff0000	10pct	1	50pct	50pct	5000	408010	413029	407764	57	413321	292	0	1	73
6.1.1	win	2020-04-03	16:21:46	1	1	1	USRTblock	1	USRT	76	600000	#ff0000	10pct	1	50pct	50pct	2000	413325	415345	413029	57	415681	336	0	1	74
6.1.1	win	2020-04-03	16:21:46	1	1	1	USRTblock	1	USRT	77	600000	#ff0000	10pct	1	50pct	50pct	2000	415685	417695	415345	57	418038	343	0	1	75
6.1.1	win	2020-04-03	16:21:46	1	1	1	USRTblock	1	USRT	78	600000	#ff0000	10pct	1	50pct	50pct	7000	418041	425062	417695	57	425481	419	0	1	76
6.1.1	win	2020-04-03	16:21:46	1	1	1	USRTblock	1	USRT	79	600000	#ff0000	10pct	1	50pct	50pct	4000	425485	429494	425062	57	429799	305	0	1	77
6.1.1	win	2020-04-03	16:21:46	1	1	1	USRTblock	1	USRT	80	600000	#ff0000	10pct	1	50pct	50pct	2000	429803	431810	429494	57	432118	308	0	1	78
6.1.1	win	2020-04-03	16:21:46	1	1	1	USRTblock	1	USRT	81	600000	#ff0000	10pct	1	50pct	50pct	4000	432121	436127	431810	57	436471	344	0	1	79
6.1.1	win	2020-04-03	16:21:46	1	1	1	USRTblock	1	USRT	82	600000	#ff0000	10pct	1	50pct	50pct	3000	436475	439492	436127	57	440137	645	0	1	80
6.1.1	win	2020-04-03	16:21:46	1	1	1	USRTblock	1	USRT	83	600000	#ff0000	10pct	1	50pct	50pct	7000	440141	447159	439492	57	447404	245	0	1	81
6.1.1	win	2020-04-03	16:21:46	1	1	1	USRTblock	1	USRT	84	600000	#ff0000	10pct	1	50pct	50pct	6000	447408	453425	447159	57	453708	283	0	1	82
6.1.1	win	2020-04-03	16:21:46	1	1	1	USRTblock	1	USRT	85	600000	#ff0000	10pct	1	50pct	50pct	6000	453712	459724	453425	57	460021	297	0	1	83
6.1.1	win	2020-04-03	16:21:46	1	1	1	USRTblock	1	USRT	86	600000	#ff0000	10pct	1	50pct	50pct	6000	460024	466040	459724	57	466291	251	0	1	84
6.1.1	win	2020-04-03	16:21:46	1	1	1	USRTblock	1	USRT	87	600000	#ff0000	10pct	1	50pct	50pct	4000	466295	470307	466040	57	470588	281	0	1	85
6.1.1	win	2020-04-03	16:21:46	1	1	1	USRTblock	1	USRT	88	600000	#ff0000	10pct	1	50pct	50pct	7000	470591	477606	470307	57	477847	241	0	1	86
6.1.1	win	2020-04-03	16:21:46	1	1	1	USRTblock	1	USRT	89	600000	#ff0000	10pct	1	50pct	50pct	6000	477851	-1	477606	57	483121	0	1	2	87
6.1.1	win	2020-04-03	16:21:46	1	1	1	USRTblock	1	USRT	90	600000	#ff0000	10pct	1	50pct	50pct	8000	483125	491138	-1	57	491492	354	0	2	88
6.1.1	win	2020-04-03	16:21:46	1	1	1	USRTblock	1	USRT	91	600000	#ff0000	10pct	1	50pct	50pct	3000	491496	494503	491138	57	494857	354	0	2	89
6.1.1	win	2020-04-03	16:21:46	1	1	1	USRTblock	1	USRT	92	600000	#ff0000	10pct	1	50pct	50pct	3000	494862	497870	494503	57	498197	327	0	2	90
6.1.1	win	2020-04-03	16:21:46	1	1	1	USRTblock	1	USRT	93	600000	#ff0000	10pct	1	50pct	50pct	4000	498201	502220	497870	57	502580	360	0	2	91
6.1.1	win	2020-04-03	16:21:46	1	1	1	USRTblock	1	USRT	94	600000	#ff0000	10pct	1	50pct	50pct	7000	502583	509603	502220	57	509906	303	0	2	92
6.1.1	win	2020-04-03	16:21:46	1	1	1	USRTblock	1	USRT	95	600000	#ff0000	10pct	1	50pct	50pct	3000	509909	512919	509603	57	513223	304	0	2	93
6.1.1	win	2020-04-03	16:21:46	1	1	1	USRTblock	1	USRT	96	600000	#ff0000	10pct	1	50pct	50pct	3000	513227	516235	512919	57	516499	264	0	2	94
6.1.1	win	2020-04-03	16:21:46	1	1	1	USRTblock	1	USRT	97	600000	#ff0000	10pct	1	50pct	50pct	7000	516502	523518	516235	57	523743	225	0	2	95
6.1.1	win	2020-04-03	16:21:46	1	1	1	USRTblock	1	USRT	98	600000	#ff0000	10pct	1	50pct	50pct	3000	523746	526750	523518	57	527007	257	0	2	96
6.1.1	win	2020-04-03	16:21:46	1	1	1	USRTblock	1	USRT	99	600000	#ff0000	10pct	1	50pct	50pct	8000	527010	535017	526750	57	535272	255	0	2	97
6.1.1	win	2020-04-03	16:21:46	1	1	1	USRTblock	1	USRT	100	600000	#ff0000	10pct	1	50pct	50pct	7000	535276	542282	535017	57	542529	247	0	2	98
6.1.1	win	2020-04-03	16:21:46	1	1	1	USRTblock	1	USRT	101	600000	#ff0000	10pct	1	50pct	50pct	5000	542533	547549	542282	57	547801	252	0	2	99
6.1.1	win	2020-04-03	16:21:46	1	1	1	USRTblock	1	USRT	102	600000	#ff0000	10pct	1	50pct	50pct	2000	547805	549815	547549	57	550131	316	0	2	100
6.1.1	win	2020-04-03	16:21:46	1	1	1	USRTblock	1	USRT	103	600000	#ff0000	10pct	1	50pct	50pct	3000	550135	553148	549815	57	553472	324	0	2	101
6.1.1	win	2020-04-03	16:21:46	1	1	1	USRTblock	1	USRT	104	600000	#ff0000	10pct	1	50pct	50pct	8000	553476	561497	553148	57	561784	287	0	2	102
6.1.1	win	2020-04-03	16:21:46	1	1	1	USRTblock	1	USRT	105	600000	#ff0000	10pct	1	50pct	50pct	3000	561788	564797	561497	57	565060	263	0	2	103
6.1.1	win	2020-04-03	16:21:46	1	1	1	USRTblock	1	USRT	106	600000	#ff0000	10pct	1	50pct	50pct	7000	565063	572080	564797	57	572345	265	0	2	104
6.1.1	win	2020-04-03	16:21:46	1	1	1	USRTblock	1	USRT	107	600000	#ff0000	10pct	1	50pct	50pct	5000	572349	577362	572080	57	577664	302	0	2	105
6.1.1	win	2020-04-03	16:21:46	1	1	1	USRTblock	1	USRT	108	600000	#ff0000	10pct	1	50pct	50pct	7000	577668	584678	577362	57	584979	301	0	2	106
6.1.1	win	2020-04-03	16:21:46	1	1	1	USRTblock	1	USRT	109	600000	#ff0000	10pct	1	50pct	50pct	6000	584983	590994	584678	57	591318	324	0	2	107
6.1.1	win	2020-04-03	16:21:46	1	1	1	USRTblock	1	USRT	110	600000	#ff0000	10pct	1	50pct	50pct	8000	591322	599327	590994	57	599585	258	0	2	108
6.1.1	win	2020-04-03	16:21:46	1	1	1	USRTblock	1	USRT	111	600000	#ff0000	10pct	1	50pct	50pct	6000	599588	-1	599327	0	599664	0	1	3	109
