build	computer.platform	date	time	subject	group	sessionid	blockcode	blocknum	trialcode	trialnum	testduration	targetcolor	targetsize	fixed	targetx	targety	stiminterval	trialStart	shape.targetcircle.timestamp	lastCircleTimestamp	response	rt_elapsed	rt	EarlyResponse	countEarlyResponses	countResponses
6.1.1	win	2020-04-22	22:08:04	1	1	1	USRTblock	1	USRT	3	600000	#ff0000	10pct	1	50pct	50pct	7000	2961	-1	2234	57	7693	0	1	1	1
6.1.1	win	2020-04-22	22:08:04	1	1	1	USRTblock	1	USRT	4	600000	#ff0000	10pct	1	50pct	50pct	7000	7712	14721	-1	57	14981	260	0	1	2
6.1.1	win	2020-04-22	22:08:04	1	1	1	USRTblock	1	USRT	5	600000	#ff0000	10pct	1	50pct	50pct	3000	14985	18003	14721	57	18426	423	0	1	3
6.1.1	win	2020-04-22	22:08:04	1	1	1	USRTblock	1	USRT	6	600000	#ff0000	10pct	1	50pct	50pct	7000	18430	25436	18003	57	25879	443	0	1	4
6.1.1	win	2020-04-22	22:08:04	1	1	1	USRTblock	1	USRT	7	600000	#ff0000	10pct	1	50pct	50pct	4000	25883	29903	25436	57	30174	271	0	1	5
6.1.1	win	2020-04-22	22:08:04	1	1	1	USRTblock	1	USRT	8	600000	#ff0000	10pct	1	50pct	50pct	6000	30179	36185	29903	57	36471	286	0	1	6
6.1.1	win	2020-04-22	22:08:04	1	1	1	USRTblock	1	USRT	9	600000	#ff0000	10pct	1	50pct	50pct	6000	36475	42484	36185	57	42777	293	0	1	7
6.1.1	win	2020-04-22	22:08:04	1	1	1	USRTblock	1	USRT	10	600000	#ff0000	10pct	1	50pct	50pct	5000	42782	47800	42484	57	48140	340	0	1	8
6.1.1	win	2020-04-22	22:08:04	1	1	1	USRTblock	1	USRT	11	600000	#ff0000	10pct	1	50pct	50pct	3000	48145	51166	47800	57	51666	500	0	1	9
6.1.1	win	2020-04-22	22:08:04	1	1	1	USRTblock	1	USRT	12	600000	#ff0000	10pct	1	50pct	50pct	2000	51670	53683	51166	57	54153	470	0	1	10
6.1.1	win	2020-04-22	22:08:04	1	1	1	USRTblock	1	USRT	13	600000	#ff0000	10pct	1	50pct	50pct	3000	54158	57166	53683	57	57467	301	0	1	11
6.1.1	win	2020-04-22	22:08:04	1	1	1	USRTblock	1	USRT	14	600000	#ff0000	10pct	1	50pct	50pct	6000	57471	63482	57166	57	63808	326	0	1	12
6.1.1	win	2020-04-22	22:08:04	1	1	1	USRTblock	1	USRT	15	600000	#ff0000	10pct	1	50pct	50pct	8000	63813	71832	63482	57	72301	469	0	1	13
6.1.1	win	2020-04-22	22:08:04	1	1	1	USRTblock	1	USRT	16	600000	#ff0000	10pct	1	50pct	50pct	6000	72306	78314	71832	57	78709	395	0	1	14
6.1.1	win	2020-04-22	22:08:04	1	1	1	USRTblock	1	USRT	17	600000	#ff0000	10pct	1	50pct	50pct	7000	78713	85730	78314	57	86157	427	0	1	15
6.1.1	win	2020-04-22	22:08:04	1	1	1	USRTblock	1	USRT	18	600000	#ff0000	10pct	1	50pct	50pct	6000	86162	92179	85730	57	92463	284	0	1	16
6.1.1	win	2020-04-22	22:08:04	1	1	1	USRTblock	1	USRT	19	600000	#ff0000	10pct	1	50pct	50pct	8000	92468	-1	92179	57	99724	0	1	2	17
6.1.1	win	2020-04-22	22:08:04	1	1	1	USRTblock	1	USRT	20	600000	#ff0000	10pct	1	50pct	50pct	6000	99729	105745	-1	57	106008	263	0	2	18
6.1.1	win	2020-04-22	22:08:04	1	1	1	USRTblock	1	USRT	21	600000	#ff0000	10pct	1	50pct	50pct	2000	106013	108027	105745	57	108573	546	0	2	19
6.1.1	win	2020-04-22	22:08:04	1	1	1	USRTblock	1	USRT	22	600000	#ff0000	10pct	1	50pct	50pct	4000	108577	112594	108027	57	112901	307	0	2	20
6.1.1	win	2020-04-22	22:08:04	1	1	1	USRTblock	1	USRT	23	600000	#ff0000	10pct	1	50pct	50pct	3000	112906	115926	112594	57	116459	533	0	2	21
6.1.1	win	2020-04-22	22:08:04	1	1	1	USRTblock	1	USRT	24	600000	#ff0000	10pct	1	50pct	50pct	7000	116463	123476	115926	57	123743	267	0	2	22
6.1.1	win	2020-04-22	22:08:04	1	1	1	USRTblock	1	USRT	25	600000	#ff0000	10pct	1	50pct	50pct	4000	123748	127759	123476	57	128025	266	0	2	23
6.1.1	win	2020-04-22	22:08:04	1	1	1	USRTblock	1	USRT	26	600000	#ff0000	10pct	1	50pct	50pct	6000	128029	134042	127759	57	134370	328	0	2	24
6.1.1	win	2020-04-22	22:08:04	1	1	1	USRTblock	1	USRT	27	600000	#ff0000	10pct	1	50pct	50pct	4000	134375	138392	134042	57	138663	271	0	2	25
6.1.1	win	2020-04-22	22:08:04	1	1	1	USRTblock	1	USRT	28	600000	#ff0000	10pct	1	50pct	50pct	6000	138668	144674	138392	57	144923	249	0	2	26
6.1.1	win	2020-04-22	22:08:04	1	1	1	USRTblock	1	USRT	29	600000	#ff0000	10pct	1	50pct	50pct	7000	144928	151940	144674	57	152198	258	0	2	27
6.1.1	win	2020-04-22	22:08:04	1	1	1	USRTblock	1	USRT	30	600000	#ff0000	10pct	1	50pct	50pct	6000	152203	158222	151940	57	158514	292	0	2	28
6.1.1	win	2020-04-22	22:08:04	1	1	1	USRTblock	1	USRT	31	600000	#ff0000	10pct	1	50pct	50pct	2000	158519	160539	158222	57	160958	419	0	2	29
6.1.1	win	2020-04-22	22:08:04	1	1	1	USRTblock	1	USRT	32	600000	#ff0000	10pct	1	50pct	50pct	4000	160962	164971	160539	57	165377	406	0	2	30
6.1.1	win	2020-04-22	22:08:04	1	1	1	USRTblock	1	USRT	33	600000	#ff0000	10pct	1	50pct	50pct	6000	165381	171388	164971	57	171636	248	0	2	31
6.1.1	win	2020-04-22	22:08:04	1	1	1	USRTblock	1	USRT	34	600000	#ff0000	10pct	1	50pct	50pct	7000	171641	178654	171388	57	178972	318	0	2	32
6.1.1	win	2020-04-22	22:08:04	1	1	1	USRTblock	1	USRT	35	600000	#ff0000	10pct	1	50pct	50pct	2000	178977	180987	178654	57	181291	304	0	2	33
6.1.1	win	2020-04-22	22:08:04	1	1	1	USRTblock	1	USRT	36	600000	#ff0000	10pct	1	50pct	50pct	7000	181296	188303	180987	57	188627	324	0	2	34
6.1.1	win	2020-04-22	22:08:04	1	1	1	USRTblock	1	USRT	37	600000	#ff0000	10pct	1	50pct	50pct	4000	188632	192652	188303	57	192982	330	0	2	35
6.1.1	win	2020-04-22	22:08:04	1	1	1	USRTblock	1	USRT	38	600000	#ff0000	10pct	1	50pct	50pct	3000	192987	196002	192652	57	196313	311	0	2	36
6.1.1	win	2020-04-22	22:08:04	1	1	1	USRTblock	1	USRT	39	600000	#ff0000	10pct	1	50pct	50pct	4000	196318	200335	196002	57	200626	291	0	2	37
6.1.1	win	2020-04-22	22:08:04	1	1	1	USRTblock	1	USRT	40	600000	#ff0000	10pct	1	50pct	50pct	2000	200630	202651	200335	57	202952	301	0	2	38
6.1.1	win	2020-04-22	22:08:04	1	1	1	USRTblock	1	USRT	41	600000	#ff0000	10pct	1	50pct	50pct	7000	202956	209968	202651	57	210239	271	0	2	39
6.1.1	win	2020-04-22	22:08:04	1	1	1	USRTblock	1	USRT	42	600000	#ff0000	10pct	1	50pct	50pct	6000	210243	216250	209968	57	216513	263	0	2	40
6.1.1	win	2020-04-22	22:08:04	1	1	1	USRTblock	1	USRT	43	600000	#ff0000	10pct	1	50pct	50pct	3000	216518	219532	216250	57	219829	297	0	2	41
6.1.1	win	2020-04-22	22:08:04	1	1	1	USRTblock	1	USRT	44	600000	#ff0000	10pct	1	50pct	50pct	3000	219833	222849	219532	57	223145	296	0	2	42
6.1.1	win	2020-04-22	22:08:04	1	1	1	USRTblock	1	USRT	45	600000	#ff0000	10pct	1	50pct	50pct	2000	223149	225166	222849	57	225488	322	0	2	43
6.1.1	win	2020-04-22	22:08:04	1	1	1	USRTblock	1	USRT	46	600000	#ff0000	10pct	1	50pct	50pct	4000	225492	229498	225166	57	229752	254	0	2	44
6.1.1	win	2020-04-22	22:08:04	1	1	1	USRTblock	1	USRT	47	600000	#ff0000	10pct	1	50pct	50pct	5000	229757	234765	229498	57	235031	266	0	2	45
6.1.1	win	2020-04-22	22:08:04	1	1	1	USRTblock	1	USRT	48	600000	#ff0000	10pct	1	50pct	50pct	2000	235036	237048	234765	57	237376	328	0	2	46
6.1.1	win	2020-04-22	22:08:04	1	1	1	USRTblock	1	USRT	49	600000	#ff0000	10pct	1	50pct	50pct	7000	237380	244398	237048	57	244667	269	0	2	47
6.1.1	win	2020-04-22	22:08:04	1	1	1	USRTblock	1	USRT	50	600000	#ff0000	10pct	1	50pct	50pct	2000	244671	246680	244398	57	247028	348	0	2	48
6.1.1	win	2020-04-22	22:08:04	1	1	1	USRTblock	1	USRT	51	600000	#ff0000	10pct	1	50pct	50pct	7000	247033	254046	246680	57	254326	280	0	2	49
6.1.1	win	2020-04-22	22:08:04	1	1	1	USRTblock	1	USRT	52	600000	#ff0000	10pct	1	50pct	50pct	6000	254331	260346	254046	57	260637	291	0	2	50
6.1.1	win	2020-04-22	22:08:04	1	1	1	USRTblock	1	USRT	53	600000	#ff0000	10pct	1	50pct	50pct	5000	260642	265662	260346	57	265928	266	0	2	51
6.1.1	win	2020-04-22	22:08:04	1	1	1	USRTblock	1	USRT	54	600000	#ff0000	10pct	1	50pct	50pct	6000	265932	271944	265662	57	272190	246	0	2	52
6.1.1	win	2020-04-22	22:08:04	1	1	1	USRTblock	1	USRT	55	600000	#ff0000	10pct	1	50pct	50pct	2000	272194	274210	271944	57	274578	368	0	2	53
6.1.1	win	2020-04-22	22:08:04	1	1	1	USRTblock	1	USRT	56	600000	#ff0000	10pct	1	50pct	50pct	4000	274583	278594	274210	57	278879	285	0	2	54
6.1.1	win	2020-04-22	22:08:04	1	1	1	USRTblock	1	USRT	57	600000	#ff0000	10pct	1	50pct	50pct	2000	278883	280893	278594	57	281311	418	0	2	55
6.1.1	win	2020-04-22	22:08:04	1	1	1	USRTblock	1	USRT	58	600000	#ff0000	10pct	1	50pct	50pct	7000	281315	288328	280893	57	288574	246	0	2	56
6.1.1	win	2020-04-22	22:08:04	1	1	1	USRTblock	1	USRT	59	600000	#ff0000	10pct	1	50pct	50pct	8000	288579	296593	288328	57	296862	269	0	2	57
6.1.1	win	2020-04-22	22:08:04	1	1	1	USRTblock	1	USRT	60	600000	#ff0000	10pct	1	50pct	50pct	8000	296867	304875	296593	57	305205	330	0	2	58
6.1.1	win	2020-04-22	22:08:04	1	1	1	USRTblock	1	USRT	61	600000	#ff0000	10pct	1	50pct	50pct	5000	305209	310224	304875	57	310508	284	0	2	59
6.1.1	win	2020-04-22	22:08:04	1	1	1	USRTblock	1	USRT	62	600000	#ff0000	10pct	1	50pct	50pct	2000	310512	312523	310224	57	312877	354	0	2	60
6.1.1	win	2020-04-22	22:08:04	1	1	1	USRTblock	1	USRT	63	600000	#ff0000	10pct	1	50pct	50pct	5000	312882	317890	312523	57	318154	264	0	2	61
6.1.1	win	2020-04-22	22:08:04	1	1	1	USRTblock	1	USRT	64	600000	#ff0000	10pct	1	50pct	50pct	4000	318159	322172	317890	57	322497	325	0	2	62
6.1.1	win	2020-04-22	22:08:04	1	1	1	USRTblock	1	USRT	65	600000	#ff0000	10pct	1	50pct	50pct	3000	322501	325522	322172	57	325866	344	0	2	63
6.1.1	win	2020-04-22	22:08:04	1	1	1	USRTblock	1	USRT	66	600000	#ff0000	10pct	1	50pct	50pct	8000	325870	333889	325522	57	334137	248	0	2	64
6.1.1	win	2020-04-22	22:08:04	1	1	1	USRTblock	1	USRT	67	600000	#ff0000	10pct	1	50pct	50pct	7000	334142	341155	333889	57	341435	280	0	2	65
6.1.1	win	2020-04-22	22:08:04	1	1	1	USRTblock	1	USRT	68	600000	#ff0000	10pct	1	50pct	50pct	7000	341440	348453	341155	57	348743	290	0	2	66
6.1.1	win	2020-04-22	22:08:04	1	1	1	USRTblock	1	USRT	69	600000	#ff0000	10pct	1	50pct	50pct	7000	348747	355753	348453	57	356099	346	0	2	67
6.1.1	win	2020-04-22	22:08:04	1	1	1	USRTblock	1	USRT	70	600000	#ff0000	10pct	1	50pct	50pct	5000	356104	361119	355753	57	361430	311	0	2	68
6.1.1	win	2020-04-22	22:08:04	1	1	1	USRTblock	1	USRT	71	600000	#ff0000	10pct	1	50pct	50pct	2000	361434	363452	361119	57	363810	358	0	2	69
6.1.1	win	2020-04-22	22:08:04	1	1	1	USRTblock	1	USRT	72	600000	#ff0000	10pct	1	50pct	50pct	8000	363814	371835	363452	57	372109	274	0	2	70
6.1.1	win	2020-04-22	22:08:04	1	1	1	USRTblock	1	USRT	73	600000	#ff0000	10pct	1	50pct	50pct	2000	372114	374134	371835	57	374672	538	0	2	71
6.1.1	win	2020-04-22	22:08:04	1	1	1	USRTblock	1	USRT	74	600000	#ff0000	10pct	1	50pct	50pct	3000	374676	377683	374134	57	378021	338	0	2	72
6.1.1	win	2020-04-22	22:08:04	1	1	1	USRTblock	1	USRT	75	600000	#ff0000	10pct	1	50pct	50pct	7000	378026	385033	377683	57	385313	280	0	2	73
6.1.1	win	2020-04-22	22:08:04	1	1	1	USRTblock	1	USRT	76	600000	#ff0000	10pct	1	50pct	50pct	5000	385317	390333	385033	57	390725	392	0	2	74
6.1.1	win	2020-04-22	22:08:04	1	1	1	USRTblock	1	USRT	77	600000	#ff0000	10pct	1	50pct	50pct	2000	390729	392749	390333	57	393164	415	0	2	75
6.1.1	win	2020-04-22	22:08:04	1	1	1	USRTblock	1	USRT	78	600000	#ff0000	10pct	1	50pct	50pct	4000	393168	397182	392749	57	397622	440	0	2	76
6.1.1	win	2020-04-22	22:08:04	1	1	1	USRTblock	1	USRT	79	600000	#ff0000	10pct	1	50pct	50pct	2000	397626	399631	397182	57	400034	403	0	2	77
6.1.1	win	2020-04-22	22:08:04	1	1	1	USRTblock	1	USRT	80	600000	#ff0000	10pct	1	50pct	50pct	4000	400038	404047	399631	57	404428	381	0	2	78
6.1.1	win	2020-04-22	22:08:04	1	1	1	USRTblock	1	USRT	81	600000	#ff0000	10pct	1	50pct	50pct	7000	404432	411448	404047	57	411817	369	0	2	79
6.1.1	win	2020-04-22	22:08:04	1	1	1	USRTblock	1	USRT	82	600000	#ff0000	10pct	1	50pct	50pct	8000	411821	419830	411448	57	420173	343	0	2	80
6.1.1	win	2020-04-22	22:08:04	1	1	1	USRTblock	1	USRT	83	600000	#ff0000	10pct	1	50pct	50pct	4000	420178	424196	419830	57	424462	266	0	2	81
6.1.1	win	2020-04-22	22:08:04	1	1	1	USRTblock	1	USRT	84	600000	#ff0000	10pct	1	50pct	50pct	7000	424466	431478	424196	57	431823	345	0	2	82
6.1.1	win	2020-04-22	22:08:04	1	1	1	USRTblock	1	USRT	85	600000	#ff0000	10pct	1	50pct	50pct	4000	431827	435844	431478	57	436217	373	0	2	83
6.1.1	win	2020-04-22	22:08:04	1	1	1	USRTblock	1	USRT	86	600000	#ff0000	10pct	1	50pct	50pct	8000	436221	444228	435844	57	444538	310	0	2	84
6.1.1	win	2020-04-22	22:08:04	1	1	1	USRTblock	1	USRT	87	600000	#ff0000	10pct	1	50pct	50pct	4000	444542	448560	444228	57	448851	291	0	2	85
6.1.1	win	2020-04-22	22:08:04	1	1	1	USRTblock	1	USRT	88	600000	#ff0000	10pct	1	50pct	50pct	7000	448855	455876	448560	57	456168	292	0	2	86
6.1.1	win	2020-04-22	22:08:04	1	1	1	USRTblock	1	USRT	89	600000	#ff0000	10pct	1	50pct	50pct	2000	456190	458209	455876	57	458521	312	0	2	87
6.1.1	win	2020-04-22	22:08:04	1	1	1	USRTblock	1	USRT	90	600000	#ff0000	10pct	1	50pct	50pct	5000	458526	463542	458209	57	463843	301	0	2	88
6.1.1	win	2020-04-22	22:08:04	1	1	1	USRTblock	1	USRT	91	600000	#ff0000	10pct	1	50pct	50pct	4000	463847	467858	463542	57	468160	302	0	2	89
6.1.1	win	2020-04-22	22:08:04	1	1	1	USRTblock	1	USRT	92	600000	#ff0000	10pct	1	50pct	50pct	7000	468165	475174	467858	57	475449	275	0	2	90
6.1.1	win	2020-04-22	22:08:04	1	1	1	USRTblock	1	USRT	93	600000	#ff0000	10pct	1	50pct	50pct	8000	475454	483473	475174	57	483815	342	0	2	91
6.1.1	win	2020-04-22	22:08:04	1	1	1	USRTblock	1	USRT	94	600000	#ff0000	10pct	1	50pct	50pct	5000	483819	488840	483473	57	489127	287	0	2	92
6.1.1	win	2020-04-22	22:08:04	1	1	1	USRTblock	1	USRT	95	600000	#ff0000	10pct	1	50pct	50pct	2000	489131	491139	488840	57	491475	336	0	2	93
6.1.1	win	2020-04-22	22:08:04	1	1	1	USRTblock	1	USRT	96	600000	#ff0000	10pct	1	50pct	50pct	8000	491480	499489	491139	57	499786	297	0	2	94
6.1.1	win	2020-04-22	22:08:04	1	1	1	USRTblock	1	USRT	97	600000	#ff0000	10pct	1	50pct	50pct	7000	499790	506805	499489	57	507093	288	0	2	95
6.1.1	win	2020-04-22	22:08:04	1	1	1	USRTblock	1	USRT	98	600000	#ff0000	10pct	1	50pct	50pct	2000	507097	509104	506805	57	509603	499	0	2	96
6.1.1	win	2020-04-22	22:08:04	1	1	1	USRTblock	1	USRT	99	600000	#ff0000	10pct	1	50pct	50pct	6000	509607	515620	509104	57	515896	276	0	2	97
6.1.1	win	2020-04-22	22:08:04	1	1	1	USRTblock	1	USRT	100	600000	#ff0000	10pct	1	50pct	50pct	6000	515900	521919	515620	57	522215	296	0	2	98
6.1.1	win	2020-04-22	22:08:04	1	1	1	USRTblock	1	USRT	101	600000	#ff0000	10pct	1	50pct	50pct	4000	522220	526236	521919	57	526520	284	0	2	99
6.1.1	win	2020-04-22	22:08:04	1	1	1	USRTblock	1	USRT	102	600000	#ff0000	10pct	1	50pct	50pct	2000	526524	528535	526236	57	528928	393	0	2	100
6.1.1	win	2020-04-22	22:08:04	1	1	1	USRTblock	1	USRT	103	600000	#ff0000	10pct	1	50pct	50pct	3000	528932	531952	528535	57	532269	317	0	2	101
6.1.1	win	2020-04-22	22:08:04	1	1	1	USRTblock	1	USRT	104	600000	#ff0000	10pct	1	50pct	50pct	8000	532274	540285	531952	57	540580	295	0	2	102
6.1.1	win	2020-04-22	22:08:04	1	1	1	USRTblock	1	USRT	105	600000	#ff0000	10pct	1	50pct	50pct	6000	540585	546600	540285	57	546918	318	0	2	103
6.1.1	win	2020-04-22	22:08:04	1	1	1	USRTblock	1	USRT	106	600000	#ff0000	10pct	1	50pct	50pct	7000	546922	553933	546600	57	554206	273	0	2	104
6.1.1	win	2020-04-22	22:08:04	1	1	1	USRTblock	1	USRT	107	600000	#ff0000	10pct	1	50pct	50pct	5000	554211	559232	553933	57	559484	252	0	2	105
6.1.1	win	2020-04-22	22:08:04	1	1	1	USRTblock	1	USRT	108	600000	#ff0000	10pct	1	50pct	50pct	3000	559488	562499	559232	57	562902	403	0	2	106
6.1.1	win	2020-04-22	22:08:04	1	1	1	USRTblock	1	USRT	109	600000	#ff0000	10pct	1	50pct	50pct	2000	562906	564915	562499	57	565237	322	0	2	107
6.1.1	win	2020-04-22	22:08:04	1	1	1	USRTblock	1	USRT	110	600000	#ff0000	10pct	1	50pct	50pct	2000	565241	567248	564915	57	567576	328	0	2	108
6.1.1	win	2020-04-22	22:08:04	1	1	1	USRTblock	1	USRT	111	600000	#ff0000	10pct	1	50pct	50pct	2000	567580	569598	567248	57	570005	407	0	2	109
6.1.1	win	2020-04-22	22:08:04	1	1	1	USRTblock	1	USRT	112	600000	#ff0000	10pct	1	50pct	50pct	5000	570009	575031	569598	57	575332	301	0	2	110
6.1.1	win	2020-04-22	22:08:04	1	1	1	USRTblock	1	USRT	113	600000	#ff0000	10pct	1	50pct	50pct	7000	575336	582347	575031	57	582623	276	0	2	111
6.1.1	win	2020-04-22	22:08:04	1	1	1	USRTblock	1	USRT	114	600000	#ff0000	10pct	1	50pct	50pct	6000	582628	588646	582347	57	588914	268	0	2	112
6.1.1	win	2020-04-22	22:08:04	1	1	1	USRTblock	1	USRT	115	600000	#ff0000	10pct	1	50pct	50pct	5000	588918	593929	588646	57	594247	318	0	2	113
6.1.1	win	2020-04-22	22:08:04	1	1	1	USRTblock	1	USRT	116	600000	#ff0000	10pct	1	50pct	50pct	3000	594251	597262	593929	57	597577	315	0	2	114
6.1.1	win	2020-04-22	22:08:04	1	1	1	USRTblock	1	USRT	117	600000	#ff0000	10pct	1	50pct	50pct	2000	597582	599594	597262	57	600050	456	0	2	115
6.1.1	win	2020-04-22	22:08:04	1	1	1	USRTblock	1	USRT	118	600000	#ff0000	10pct	1	50pct	50pct	2000	600055	-1	599594	0	600182	0	1	3	116
