build	computer.platform	date	time	subject	group	sessionid	blockcode	blocknum	trialcode	trialnum	testduration	targetcolor	targetsize	fixed	targetx	targety	stiminterval	trialStart	shape.targetcircle.timestamp	lastCircleTimestamp	response	rt_elapsed	rt	EarlyResponse	countEarlyResponses	countResponses
6.1.1	win	2020-04-22	07:45:17	1	1	1	USRTblock	1	USRT	3	600000	#ff0000	10pct	1	50pct	50pct	3000	3937	6946	3208	57	7203	257	0	0	1
6.1.1	win	2020-04-22	07:45:17	1	1	1	USRTblock	1	USRT	4	600000	#ff0000	10pct	1	50pct	50pct	5000	7248	12260	6946	57	12525	265	0	0	2
6.1.1	win	2020-04-22	07:45:17	1	1	1	USRTblock	1	USRT	5	600000	#ff0000	10pct	1	50pct	50pct	7000	12528	19543	12260	57	19844	301	0	0	3
6.1.1	win	2020-04-22	07:45:17	1	1	1	USRTblock	1	USRT	6	600000	#ff0000	10pct	1	50pct	50pct	5000	19847	24859	19543	57	25291	432	0	0	4
6.1.1	win	2020-04-22	07:45:17	1	1	1	USRTblock	1	USRT	7	600000	#ff0000	10pct	1	50pct	50pct	5000	25294	30309	24859	57	30757	448	0	0	5
6.1.1	win	2020-04-22	07:45:17	1	1	1	USRTblock	1	USRT	8	600000	#ff0000	10pct	1	50pct	50pct	6000	30761	36774	30309	57	37092	318	0	0	6
6.1.1	win	2020-04-22	07:45:17	1	1	1	USRTblock	1	USRT	9	600000	#ff0000	10pct	1	50pct	50pct	3000	37095	40107	36774	57	40495	388	0	0	7
6.1.1	win	2020-04-22	07:45:17	1	1	1	USRTblock	1	USRT	10	600000	#ff0000	10pct	1	50pct	50pct	2000	40498	42512	40107	57	42835	323	0	0	8
6.1.1	win	2020-04-22	07:45:17	1	1	1	USRTblock	1	USRT	11	600000	#ff0000	10pct	1	50pct	50pct	8000	42861	50873	42512	57	51326	453	0	0	9
6.1.1	win	2020-04-22	07:45:17	1	1	1	USRTblock	1	USRT	12	600000	#ff0000	10pct	1	50pct	50pct	8000	51330	59339	50873	57	59660	321	0	0	10
6.1.1	win	2020-04-22	07:45:17	1	1	1	USRTblock	1	USRT	13	600000	#ff0000	10pct	1	50pct	50pct	2000	59664	61671	59339	57	62076	405	0	0	11
6.1.1	win	2020-04-22	07:45:17	1	1	1	USRTblock	1	USRT	14	600000	#ff0000	10pct	1	50pct	50pct	7000	62079	69088	61671	57	69406	318	0	0	12
6.1.1	win	2020-04-22	07:45:17	1	1	1	USRTblock	1	USRT	15	600000	#ff0000	10pct	1	50pct	50pct	3000	69411	72421	69088	57	72822	401	0	0	13
6.1.1	win	2020-04-22	07:45:17	1	1	1	USRTblock	1	USRT	16	600000	#ff0000	10pct	1	50pct	50pct	6000	72825	78837	72421	57	79181	344	0	0	14
6.1.1	win	2020-04-22	07:45:17	1	1	1	USRTblock	1	USRT	17	600000	#ff0000	10pct	1	50pct	50pct	6000	79184	85203	78837	57	85557	354	0	0	15
6.1.1	win	2020-04-22	07:45:17	1	1	1	USRTblock	1	USRT	18	600000	#ff0000	10pct	1	50pct	50pct	3000	85560	88569	85203	57	88994	425	0	0	16
6.1.1	win	2020-04-22	07:45:17	1	1	1	USRTblock	1	USRT	19	600000	#ff0000	10pct	1	50pct	50pct	4000	88997	93002	88569	57	93319	317	0	0	17
6.1.1	win	2020-04-22	07:45:17	1	1	1	USRTblock	1	USRT	20	600000	#ff0000	10pct	1	50pct	50pct	2000	93322	95335	93002	57	95737	402	0	0	18
6.1.1	win	2020-04-22	07:45:17	1	1	1	USRTblock	1	USRT	21	600000	#ff0000	10pct	1	50pct	50pct	7000	95740	102751	95335	57	103195	444	0	0	19
6.1.1	win	2020-04-22	07:45:17	1	1	1	USRTblock	1	USRT	22	600000	#ff0000	10pct	1	50pct	50pct	2000	103199	105217	102751	57	105635	418	0	0	20
6.1.1	win	2020-04-22	07:45:17	1	1	1	USRTblock	1	USRT	23	600000	#ff0000	10pct	1	50pct	50pct	5000	105639	110650	105217	57	110956	306	0	0	21
6.1.1	win	2020-04-22	07:45:17	1	1	1	USRTblock	1	USRT	24	600000	#ff0000	10pct	1	50pct	50pct	8000	110959	118967	110650	57	119297	330	0	0	22
6.1.1	win	2020-04-22	07:45:17	1	1	1	USRTblock	1	USRT	25	600000	#ff0000	10pct	1	50pct	50pct	5000	119301	124315	118967	57	124672	357	0	0	23
6.1.1	win	2020-04-22	07:45:17	1	1	1	USRTblock	1	USRT	26	600000	#ff0000	10pct	1	50pct	50pct	2000	124675	126682	124315	57	127094	412	0	0	24
6.1.1	win	2020-04-22	07:45:17	1	1	1	USRTblock	1	USRT	27	600000	#ff0000	10pct	1	50pct	50pct	7000	127098	134115	126682	57	134476	361	0	0	25
6.1.1	win	2020-04-22	07:45:17	1	1	1	USRTblock	1	USRT	28	600000	#ff0000	10pct	1	50pct	50pct	3000	134480	137498	134115	57	137934	436	0	0	26
6.1.1	win	2020-04-22	07:45:17	1	1	1	USRTblock	1	USRT	29	600000	#ff0000	10pct	1	50pct	50pct	4000	137938	141947	137498	57	142414	467	0	0	27
6.1.1	win	2020-04-22	07:45:17	1	1	1	USRTblock	1	USRT	30	600000	#ff0000	10pct	1	50pct	50pct	7000	142418	149430	141947	57	149823	393	0	0	28
6.1.1	win	2020-04-22	07:45:17	1	1	1	USRTblock	1	USRT	31	600000	#ff0000	10pct	1	50pct	50pct	5000	149826	154846	149430	57	155263	417	0	0	29
6.1.1	win	2020-04-22	07:45:17	1	1	1	USRTblock	1	USRT	32	600000	#ff0000	10pct	1	50pct	50pct	8000	155266	163279	154846	57	163626	347	0	0	30
6.1.1	win	2020-04-22	07:45:17	1	1	1	USRTblock	1	USRT	33	600000	#ff0000	10pct	1	50pct	50pct	4000	163629	167645	163279	57	167997	352	0	0	31
6.1.1	win	2020-04-22	07:45:17	1	1	1	USRTblock	1	USRT	34	600000	#ff0000	10pct	1	50pct	50pct	3000	168000	171011	167645	57	171498	487	0	0	32
6.1.1	win	2020-04-22	07:45:17	1	1	1	USRTblock	1	USRT	35	600000	#ff0000	10pct	1	50pct	50pct	6000	171503	177510	171011	57	177865	355	0	0	33
6.1.1	win	2020-04-22	07:45:17	1	1	1	USRTblock	1	USRT	36	600000	#ff0000	10pct	1	50pct	50pct	4000	177869	181877	177510	57	182185	308	0	0	34
6.1.1	win	2020-04-22	07:45:17	1	1	1	USRTblock	1	USRT	37	600000	#ff0000	10pct	1	50pct	50pct	8000	182189	190210	181877	57	190546	336	0	0	35
6.1.1	win	2020-04-22	07:45:17	1	1	1	USRTblock	1	USRT	38	600000	#ff0000	10pct	1	50pct	50pct	6000	190549	196559	190210	57	196875	316	0	0	36
6.1.1	win	2020-04-22	07:45:17	1	1	1	USRTblock	1	USRT	39	600000	#ff0000	10pct	1	50pct	50pct	4000	196879	200891	196559	57	201288	397	0	0	37
6.1.1	win	2020-04-22	07:45:17	1	1	1	USRTblock	1	USRT	40	600000	#ff0000	10pct	1	50pct	50pct	4000	201291	205308	200891	57	205660	352	0	0	38
6.1.1	win	2020-04-22	07:45:17	1	1	1	USRTblock	1	USRT	41	600000	#ff0000	10pct	1	50pct	50pct	3000	205664	208674	205308	57	208998	324	0	0	39
6.1.1	win	2020-04-22	07:45:17	1	1	1	USRTblock	1	USRT	42	600000	#ff0000	10pct	1	50pct	50pct	7000	209001	216007	208674	57	216310	303	0	0	40
6.1.1	win	2020-04-22	07:45:17	1	1	1	USRTblock	1	USRT	43	600000	#ff0000	10pct	1	50pct	50pct	3000	216313	219323	216007	57	219722	399	0	0	41
6.1.1	win	2020-04-22	07:45:17	1	1	1	USRTblock	1	USRT	44	600000	#ff0000	10pct	1	50pct	50pct	2000	219733	221739	219323	57	222229	490	0	0	42
6.1.1	win	2020-04-22	07:45:17	1	1	1	USRTblock	1	USRT	45	600000	#ff0000	10pct	1	50pct	50pct	5000	222232	227239	221739	57	227571	332	0	0	43
6.1.1	win	2020-04-22	07:45:17	1	1	1	USRTblock	1	USRT	46	600000	#ff0000	10pct	1	50pct	50pct	7000	227574	-1	227239	57	234097	0	1	1	44
6.1.1	win	2020-04-22	07:45:17	1	1	1	USRTblock	1	USRT	47	600000	#ff0000	10pct	1	50pct	50pct	8000	234101	242121	-1	57	242431	310	0	1	45
6.1.1	win	2020-04-22	07:45:17	1	1	1	USRTblock	1	USRT	48	600000	#ff0000	10pct	1	50pct	50pct	2000	242434	244453	242121	57	244817	364	0	1	46
6.1.1	win	2020-04-22	07:45:17	1	1	1	USRTblock	1	USRT	49	600000	#ff0000	10pct	1	50pct	50pct	2000	244821	246837	244453	57	247239	402	0	1	47
6.1.1	win	2020-04-22	07:45:17	1	1	1	USRTblock	1	USRT	50	600000	#ff0000	10pct	1	50pct	50pct	3000	247244	250253	246837	57	250638	385	0	1	48
6.1.1	win	2020-04-22	07:45:17	1	1	1	USRTblock	1	USRT	51	600000	#ff0000	10pct	1	50pct	50pct	2000	250643	252653	250253	57	253106	453	0	1	49
6.1.1	win	2020-04-22	07:45:17	1	1	1	USRTblock	1	USRT	52	600000	#ff0000	10pct	1	50pct	50pct	3000	253110	256119	252653	57	256413	294	0	1	50
6.1.1	win	2020-04-22	07:45:17	1	1	1	USRTblock	1	USRT	53	600000	#ff0000	10pct	1	50pct	50pct	6000	256417	262435	256119	57	262786	351	0	1	51
6.1.1	win	2020-04-22	07:45:17	1	1	1	USRTblock	1	USRT	54	600000	#ff0000	10pct	1	50pct	50pct	2000	262790	264801	262435	57	265293	492	0	1	52
6.1.1	win	2020-04-22	07:45:17	1	1	1	USRTblock	1	USRT	55	600000	#ff0000	10pct	1	50pct	50pct	5000	265298	270318	264801	57	270624	306	0	1	53
6.1.1	win	2020-04-22	07:45:17	1	1	1	USRTblock	1	USRT	56	600000	#ff0000	10pct	1	50pct	50pct	8000	270628	278634	270318	57	278980	346	0	1	54
6.1.1	win	2020-04-22	07:45:17	1	1	1	USRTblock	1	USRT	57	600000	#ff0000	10pct	1	50pct	50pct	3000	278983	282000	278634	57	282345	345	0	1	55
6.1.1	win	2020-04-22	07:45:17	1	1	1	USRTblock	1	USRT	58	600000	#ff0000	10pct	1	50pct	50pct	7000	282348	289366	282000	57	289616	250	0	1	56
6.1.1	win	2020-04-22	07:45:17	1	1	1	USRTblock	1	USRT	59	600000	#ff0000	10pct	1	50pct	50pct	6000	289620	295632	289366	57	295889	257	0	1	57
6.1.1	win	2020-04-22	07:45:17	1	1	1	USRTblock	1	USRT	60	600000	#ff0000	10pct	1	50pct	50pct	8000	295893	303898	295632	57	304239	341	0	1	58
6.1.1	win	2020-04-22	07:45:17	1	1	1	USRTblock	1	USRT	61	600000	#ff0000	10pct	1	50pct	50pct	4000	304242	308248	303898	57	308566	318	0	1	59
6.1.1	win	2020-04-22	07:45:17	1	1	1	USRTblock	1	USRT	62	600000	#ff0000	10pct	1	50pct	50pct	6000	308570	314580	308248	57	314878	298	0	1	60
6.1.1	win	2020-04-22	07:45:17	1	1	1	USRTblock	1	USRT	63	600000	#ff0000	10pct	1	50pct	50pct	5000	314881	319896	314580	57	320260	364	0	1	61
6.1.1	win	2020-04-22	07:45:17	1	1	1	USRTblock	1	USRT	64	600000	#ff0000	10pct	1	50pct	50pct	2000	320264	322279	319896	57	322667	388	0	1	62
6.1.1	win	2020-04-22	07:45:17	1	1	1	USRTblock	1	USRT	65	600000	#ff0000	10pct	1	50pct	50pct	8000	322670	330678	322279	57	331010	332	0	1	63
6.1.1	win	2020-04-22	07:45:17	1	1	1	USRTblock	1	USRT	66	600000	#ff0000	10pct	1	50pct	50pct	8000	331014	339028	330678	57	339319	291	0	1	64
6.1.1	win	2020-04-22	07:45:17	1	1	1	USRTblock	1	USRT	67	600000	#ff0000	10pct	1	50pct	50pct	6000	339323	345344	339028	57	345623	279	0	1	65
6.1.1	win	2020-04-22	07:45:17	1	1	1	USRTblock	1	USRT	68	600000	#ff0000	10pct	1	50pct	50pct	2000	345627	347643	345344	57	347998	355	0	1	66
6.1.1	win	2020-04-22	07:45:17	1	1	1	USRTblock	1	USRT	69	600000	#ff0000	10pct	1	50pct	50pct	8000	348001	356010	347643	57	356274	264	0	1	67
6.1.1	win	2020-04-22	07:45:17	1	1	1	USRTblock	1	USRT	70	600000	#ff0000	10pct	1	50pct	50pct	2000	356278	358292	356010	57	358631	339	0	1	68
6.1.1	win	2020-04-22	07:45:17	1	1	1	USRTblock	1	USRT	71	600000	#ff0000	10pct	1	50pct	50pct	7000	358634	365642	358292	57	365915	273	0	1	69
6.1.1	win	2020-04-22	07:45:17	1	1	1	USRTblock	1	USRT	72	600000	#ff0000	10pct	1	50pct	50pct	4000	365918	369924	365642	57	370213	289	0	1	70
6.1.1	win	2020-04-22	07:45:17	1	1	1	USRTblock	1	USRT	73	600000	#ff0000	10pct	1	50pct	50pct	6000	370216	376224	369924	57	376463	239	0	1	71
6.1.1	win	2020-04-22	07:45:17	1	1	1	USRTblock	1	USRT	74	600000	#ff0000	10pct	1	50pct	50pct	4000	376467	380473	376224	57	380778	305	0	1	72
6.1.1	win	2020-04-22	07:45:17	1	1	1	USRTblock	1	USRT	75	600000	#ff0000	10pct	1	50pct	50pct	3000	380781	383789	380473	57	384113	324	0	1	73
6.1.1	win	2020-04-22	07:45:17	1	1	1	USRTblock	1	USRT	76	600000	#ff0000	10pct	1	50pct	50pct	4000	384117	388123	383789	57	388453	330	0	1	74
6.1.1	win	2020-04-22	07:45:17	1	1	1	USRTblock	1	USRT	77	600000	#ff0000	10pct	1	50pct	50pct	6000	388456	394473	388123	57	394738	265	0	1	75
6.1.1	win	2020-04-22	07:45:17	1	1	1	USRTblock	1	USRT	78	600000	#ff0000	10pct	1	50pct	50pct	3000	394742	397755	394473	57	398166	411	0	1	76
6.1.1	win	2020-04-22	07:45:17	1	1	1	USRTblock	1	USRT	79	600000	#ff0000	10pct	1	50pct	50pct	6000	398169	-1	397755	57	403687	0	1	2	77
6.1.1	win	2020-04-22	07:45:17	1	1	1	USRTblock	1	USRT	80	600000	#ff0000	10pct	1	50pct	50pct	5000	403690	408704	-1	57	408977	273	0	2	78
6.1.1	win	2020-04-22	07:45:17	1	1	1	USRTblock	1	USRT	81	600000	#ff0000	10pct	1	50pct	50pct	5000	408981	413987	408704	57	414245	258	0	2	79
6.1.1	win	2020-04-22	07:45:17	1	1	1	USRTblock	1	USRT	82	600000	#ff0000	10pct	1	50pct	50pct	3000	414250	417269	413987	57	417632	363	0	2	80
6.1.1	win	2020-04-22	07:45:17	1	1	1	USRTblock	1	USRT	83	600000	#ff0000	10pct	1	50pct	50pct	6000	417635	423653	417269	57	423924	271	0	2	81
6.1.1	win	2020-04-22	07:45:17	1	1	1	USRTblock	1	USRT	84	600000	#ff0000	10pct	1	50pct	50pct	8000	423927	431935	423653	57	432270	335	0	2	82
6.1.1	win	2020-04-22	07:45:17	1	1	1	USRTblock	1	USRT	85	600000	#ff0000	10pct	1	50pct	50pct	2000	432273	434284	431935	57	434700	416	0	2	83
6.1.1	win	2020-04-22	07:45:17	1	1	1	USRTblock	1	USRT	86	600000	#ff0000	10pct	1	50pct	50pct	6000	434704	440717	434284	57	441036	319	0	2	84
6.1.1	win	2020-04-22	07:45:17	1	1	1	USRTblock	1	USRT	87	600000	#ff0000	10pct	1	50pct	50pct	6000	441040	447050	440717	57	447474	424	0	2	85
6.1.1	win	2020-04-22	07:45:17	1	1	1	USRTblock	1	USRT	88	600000	#ff0000	10pct	1	50pct	50pct	8000	447478	455483	447050	57	455804	321	0	2	86
6.1.1	win	2020-04-22	07:45:17	1	1	1	USRTblock	1	USRT	89	600000	#ff0000	10pct	1	50pct	50pct	2000	455807	457816	455483	57	458441	625	0	2	87
6.1.1	win	2020-04-22	07:45:17	1	1	1	USRTblock	1	USRT	90	600000	#ff0000	10pct	1	50pct	50pct	3000	458445	461465	457816	57	461761	296	0	2	88
6.1.1	win	2020-04-22	07:45:17	1	1	1	USRTblock	1	USRT	91	600000	#ff0000	10pct	1	50pct	50pct	4000	461764	465781	461465	57	466048	267	0	2	89
6.1.1	win	2020-04-22	07:45:17	1	1	1	USRTblock	1	USRT	92	600000	#ff0000	10pct	1	50pct	50pct	4000	466052	470064	465781	57	470332	268	0	2	90
6.1.1	win	2020-04-22	07:45:17	1	1	1	USRTblock	1	USRT	93	600000	#ff0000	10pct	1	50pct	50pct	5000	470337	475347	470064	57	475667	320	0	2	91
6.1.1	win	2020-04-22	07:45:17	1	1	1	USRTblock	1	USRT	94	600000	#ff0000	10pct	1	50pct	50pct	4000	475671	479680	475347	57	479993	313	0	2	92
6.1.1	win	2020-04-22	07:45:17	1	1	1	USRTblock	1	USRT	95	600000	#ff0000	10pct	1	50pct	50pct	8000	479996	488013	479680	57	488283	270	0	2	93
6.1.1	win	2020-04-22	07:45:17	1	1	1	USRTblock	1	USRT	96	600000	#ff0000	10pct	1	50pct	50pct	7000	488286	495295	488013	57	495628	333	0	2	94
6.1.1	win	2020-04-22	07:45:17	1	1	1	USRTblock	1	USRT	97	600000	#ff0000	10pct	1	50pct	50pct	3000	495632	498645	495295	57	499002	357	0	2	95
6.1.1	win	2020-04-22	07:45:17	1	1	1	USRTblock	1	USRT	98	600000	#ff0000	10pct	1	50pct	50pct	6000	499005	505011	498645	57	505285	274	0	2	96
6.1.1	win	2020-04-22	07:45:17	1	1	1	USRTblock	1	USRT	99	600000	#ff0000	10pct	1	50pct	50pct	5000	505290	510310	505011	57	510680	370	0	2	97
6.1.1	win	2020-04-22	07:45:17	1	1	1	USRTblock	1	USRT	100	600000	#ff0000	10pct	1	50pct	50pct	7000	510684	517694	510310	57	518071	377	0	2	98
6.1.1	win	2020-04-22	07:45:17	1	1	1	USRTblock	1	USRT	101	600000	#ff0000	10pct	1	50pct	50pct	5000	518075	523093	517694	57	523495	402	0	2	99
6.1.1	win	2020-04-22	07:45:17	1	1	1	USRTblock	1	USRT	102	600000	#ff0000	10pct	1	50pct	50pct	2000	523499	525509	523093	57	526073	564	0	2	100
6.1.1	win	2020-04-22	07:45:17	1	1	1	USRTblock	1	USRT	103	600000	#ff0000	10pct	1	50pct	50pct	3000	526076	529092	525509	57	529554	462	0	2	101
6.1.1	win	2020-04-22	07:45:17	1	1	1	USRTblock	1	USRT	104	600000	#ff0000	10pct	1	50pct	50pct	7000	529557	536574	529092	57	536927	353	0	2	102
6.1.1	win	2020-04-22	07:45:17	1	1	1	USRTblock	1	USRT	105	600000	#ff0000	10pct	1	50pct	50pct	2000	536931	538941	536574	57	539307	366	0	2	103
6.1.1	win	2020-04-22	07:45:17	1	1	1	USRTblock	1	USRT	106	600000	#ff0000	10pct	1	50pct	50pct	4000	539311	543323	538941	57	543678	355	0	2	104
6.1.1	win	2020-04-22	07:45:17	1	1	1	USRTblock	1	USRT	107	600000	#ff0000	10pct	1	50pct	50pct	4000	543682	547690	543323	57	548028	338	0	2	105
6.1.1	win	2020-04-22	07:45:17	1	1	1	USRTblock	1	USRT	108	600000	#ff0000	10pct	1	50pct	50pct	7000	548031	555040	547690	57	555491	451	0	2	106
6.1.1	win	2020-04-22	07:45:17	1	1	1	USRTblock	1	USRT	109	600000	#ff0000	10pct	1	50pct	50pct	7000	555496	562505	555040	57	562866	361	0	2	107
6.1.1	win	2020-04-22	07:45:17	1	1	1	USRTblock	1	USRT	110	600000	#ff0000	10pct	1	50pct	50pct	7000	562870	569888	562505	57	570387	499	0	2	108
6.1.1	win	2020-04-22	07:45:17	1	1	1	USRTblock	1	USRT	111	600000	#ff0000	10pct	1	50pct	50pct	8000	570391	578404	569888	57	578770	366	0	2	109
6.1.1	win	2020-04-22	07:45:17	1	1	1	USRTblock	1	USRT	112	600000	#ff0000	10pct	1	50pct	50pct	3000	578774	581786	578404	57	582260	474	0	2	110
6.1.1	win	2020-04-22	07:45:17	1	1	1	USRTblock	1	USRT	113	600000	#ff0000	10pct	1	50pct	50pct	5000	582263	587269	581786	57	587758	489	0	2	111
6.1.1	win	2020-04-22	07:45:17	1	1	1	USRTblock	1	USRT	114	600000	#ff0000	10pct	1	50pct	50pct	5000	587762	592769	587269	57	593103	334	0	2	112
6.1.1	win	2020-04-22	07:45:17	1	1	1	USRTblock	1	USRT	115	600000	#ff0000	10pct	1	50pct	50pct	4000	593107	597118	592769	57	597438	320	0	2	113
6.1.1	win	2020-04-22	07:45:17	1	1	1	USRTblock	1	USRT	116	600000	#ff0000	10pct	1	50pct	50pct	8000	597443	-1	597118	0	597553	0	1	3	114
