build	computer.platform	date	time	subject	group	sessionid	blockcode	blocknum	trialcode	trialnum	testduration	targetcolor	targetsize	fixed	targetx	targety	stiminterval	trialStart	shape.targetcircle.timestamp	lastCircleTimestamp	response	rt_elapsed	rt	EarlyResponse	countEarlyResponses	countResponses
6.1.1	win	2020-04-21	07:48:00	1	1	1	USRTblock	1	USRT	3	600000	#ff0000	10pct	1	50pct	50pct	6000	10309	16328	9554	57	16580	252	0	0	1
6.1.1	win	2020-04-21	07:48:00	1	1	1	USRTblock	1	USRT	4	600000	#ff0000	10pct	1	50pct	50pct	2000	16611	18628	16328	57	18917	289	0	0	2
6.1.1	win	2020-04-21	07:48:00	1	1	1	USRTblock	1	USRT	5	600000	#ff0000	10pct	1	50pct	50pct	8000	18925	26944	18628	57	27208	264	0	0	3
6.1.1	win	2020-04-21	07:48:00	1	1	1	USRTblock	1	USRT	6	600000	#ff0000	10pct	1	50pct	50pct	5000	27216	32243	26944	57	32494	251	0	0	4
6.1.1	win	2020-04-21	07:48:00	1	1	1	USRTblock	1	USRT	7	600000	#ff0000	10pct	1	50pct	50pct	4000	32503	36527	32243	57	36787	260	0	0	5
6.1.1	win	2020-04-21	07:48:00	1	1	1	USRTblock	1	USRT	8	600000	#ff0000	10pct	1	50pct	50pct	2000	36796	38825	36527	57	39116	291	0	0	6
6.1.1	win	2020-04-21	07:48:00	1	1	1	USRTblock	1	USRT	9	600000	#ff0000	10pct	1	50pct	50pct	4000	39124	43159	38825	57	43432	273	0	0	7
6.1.1	win	2020-04-21	07:48:00	1	1	1	USRTblock	1	USRT	10	600000	#ff0000	10pct	1	50pct	50pct	8000	43440	51458	43159	57	51741	283	0	0	8
6.1.1	win	2020-04-21	07:48:00	1	1	1	USRTblock	1	USRT	11	600000	#ff0000	10pct	1	50pct	50pct	4000	51749	55774	51458	57	56076	302	0	0	9
6.1.1	win	2020-04-21	07:48:00	1	1	1	USRTblock	1	USRT	12	600000	#ff0000	10pct	1	50pct	50pct	3000	56083	59107	55774	57	59382	275	0	0	10
6.1.1	win	2020-04-21	07:48:00	1	1	1	USRTblock	1	USRT	13	600000	#ff0000	10pct	1	50pct	50pct	7000	59389	66407	59107	57	66679	272	0	0	11
6.1.1	win	2020-04-21	07:48:00	1	1	1	USRTblock	1	USRT	14	600000	#ff0000	10pct	1	50pct	50pct	6000	66687	72706	66407	57	72988	282	0	0	12
6.1.1	win	2020-04-21	07:48:00	1	1	1	USRTblock	1	USRT	15	600000	#ff0000	10pct	1	50pct	50pct	5000	72996	78022	72706	57	78525	503	0	0	13
6.1.1	win	2020-04-21	07:48:00	1	1	1	USRTblock	1	USRT	16	600000	#ff0000	10pct	1	50pct	50pct	3000	78532	81555	78022	57	81825	270	0	0	14
6.1.1	win	2020-04-21	07:48:00	1	1	1	USRTblock	1	USRT	17	600000	#ff0000	10pct	1	50pct	50pct	8000	81834	89854	81555	57	90103	249	0	0	15
6.1.1	win	2020-04-21	07:48:00	1	1	1	USRTblock	1	USRT	18	600000	#ff0000	10pct	1	50pct	50pct	5000	90111	95137	89854	57	95400	263	0	0	16
6.1.1	win	2020-04-21	07:48:00	1	1	1	USRTblock	1	USRT	19	600000	#ff0000	10pct	1	50pct	50pct	2000	95409	97436	95137	57	97781	345	0	0	17
6.1.1	win	2020-04-21	07:48:00	1	1	1	USRTblock	1	USRT	20	600000	#ff0000	10pct	1	50pct	50pct	7000	97789	104819	97436	57	105097	278	0	0	18
6.1.1	win	2020-04-21	07:48:00	1	1	1	USRTblock	1	USRT	21	600000	#ff0000	10pct	1	50pct	50pct	5000	105105	110136	104819	57	110420	284	0	0	19
6.1.1	win	2020-04-21	07:48:00	1	1	1	USRTblock	1	USRT	22	600000	#ff0000	10pct	1	50pct	50pct	6000	110427	116451	110136	57	116753	302	0	0	20
6.1.1	win	2020-04-21	07:48:00	1	1	1	USRTblock	1	USRT	23	600000	#ff0000	10pct	1	50pct	50pct	4000	116761	120784	116451	57	121065	281	0	0	21
6.1.1	win	2020-04-21	07:48:00	1	1	1	USRTblock	1	USRT	24	600000	#ff0000	10pct	1	50pct	50pct	3000	121073	124100	120784	57	124402	302	0	0	22
6.1.1	win	2020-04-21	07:48:00	1	1	1	USRTblock	1	USRT	25	600000	#ff0000	10pct	1	50pct	50pct	7000	124409	131433	124100	57	131814	381	0	0	23
6.1.1	win	2020-04-21	07:48:00	1	1	1	USRTblock	1	USRT	26	600000	#ff0000	10pct	1	50pct	50pct	7000	131822	138849	131433	57	139126	277	0	0	24
6.1.1	win	2020-04-21	07:48:00	1	1	1	USRTblock	1	USRT	27	600000	#ff0000	10pct	1	50pct	50pct	7000	139135	146165	138849	57	146532	367	0	0	25
6.1.1	win	2020-04-21	07:48:00	1	1	1	USRTblock	1	USRT	28	600000	#ff0000	10pct	1	50pct	50pct	8000	146540	154565	146165	57	154836	271	0	0	26
6.1.1	win	2020-04-21	07:48:00	1	1	1	USRTblock	1	USRT	29	600000	#ff0000	10pct	1	50pct	50pct	3000	154844	157881	154565	57	158174	293	0	0	27
6.1.1	win	2020-04-21	07:48:00	1	1	1	USRTblock	1	USRT	30	600000	#ff0000	10pct	1	50pct	50pct	7000	158182	-1	157881	57	160331	0	1	1	28
6.1.1	win	2020-04-21	07:48:00	1	1	1	USRTblock	1	USRT	31	600000	#ff0000	10pct	1	50pct	50pct	4000	160339	164363	-1	57	164679	316	0	1	29
6.1.1	win	2020-04-21	07:48:00	1	1	1	USRTblock	1	USRT	32	600000	#ff0000	10pct	1	50pct	50pct	5000	164688	169713	164363	57	169996	283	0	1	30
6.1.1	win	2020-04-21	07:48:00	1	1	1	USRTblock	1	USRT	33	600000	#ff0000	10pct	1	50pct	50pct	6000	170005	176029	169713	57	176313	284	0	1	31
6.1.1	win	2020-04-21	07:48:00	1	1	1	USRTblock	1	USRT	34	600000	#ff0000	10pct	1	50pct	50pct	7000	176321	183345	176029	57	183628	283	0	1	32
6.1.1	win	2020-04-21	07:48:00	1	1	1	USRTblock	1	USRT	35	600000	#ff0000	10pct	1	50pct	50pct	7000	183637	190661	183345	57	190961	300	0	1	33
6.1.1	win	2020-04-21	07:48:00	1	1	1	USRTblock	1	USRT	36	600000	#ff0000	10pct	1	50pct	50pct	7000	190970	197993	190661	57	198259	266	0	1	34
6.1.1	win	2020-04-21	07:48:00	1	1	1	USRTblock	1	USRT	37	600000	#ff0000	10pct	1	50pct	50pct	5000	198267	203293	197993	57	203565	272	0	1	35
6.1.1	win	2020-04-21	07:48:00	1	1	1	USRTblock	1	USRT	38	600000	#ff0000	10pct	1	50pct	50pct	5000	203574	208592	203293	57	208844	252	0	1	36
6.1.1	win	2020-04-21	07:48:00	1	1	1	USRTblock	1	USRT	39	600000	#ff0000	10pct	1	50pct	50pct	3000	208853	211875	208592	57	212283	408	0	1	37
6.1.1	win	2020-04-21	07:48:00	1	1	1	USRTblock	1	USRT	40	600000	#ff0000	10pct	1	50pct	50pct	6000	212292	218308	211875	57	218609	301	0	1	38
6.1.1	win	2020-04-21	07:48:00	1	1	1	USRTblock	1	USRT	41	600000	#ff0000	10pct	1	50pct	50pct	3000	218616	221641	218308	57	222079	438	0	1	39
6.1.1	win	2020-04-21	07:48:00	1	1	1	USRTblock	1	USRT	42	600000	#ff0000	10pct	1	50pct	50pct	5000	222087	227107	221641	57	227440	333	0	1	40
6.1.1	win	2020-04-21	07:48:00	1	1	1	USRTblock	1	USRT	43	600000	#ff0000	10pct	1	50pct	50pct	8000	227448	-1	227107	57	234234	0	1	2	41
6.1.1	win	2020-04-21	07:48:00	1	1	1	USRTblock	1	USRT	44	600000	#ff0000	10pct	1	50pct	50pct	5000	234242	239272	-1	57	239739	467	0	2	42
6.1.1	win	2020-04-21	07:48:00	1	1	1	USRTblock	1	USRT	45	600000	#ff0000	10pct	1	50pct	50pct	6000	239747	245772	239272	57	246137	365	0	2	43
6.1.1	win	2020-04-21	07:48:00	1	1	1	USRTblock	1	USRT	46	600000	#ff0000	10pct	1	50pct	50pct	6000	246146	252171	245772	57	252457	286	0	2	44
6.1.1	win	2020-04-21	07:48:00	1	1	1	USRTblock	1	USRT	47	600000	#ff0000	10pct	1	50pct	50pct	5000	252465	257488	252171	57	257774	286	0	2	45
6.1.1	win	2020-04-21	07:48:00	1	1	1	USRTblock	1	USRT	48	600000	#ff0000	10pct	1	50pct	50pct	7000	257783	264804	257488	57	265206	402	0	2	46
6.1.1	win	2020-04-21	07:48:00	1	1	1	USRTblock	1	USRT	49	600000	#ff0000	10pct	1	50pct	50pct	2000	265215	267236	264804	57	267697	461	0	2	47
6.1.1	win	2020-04-21	07:48:00	1	1	1	USRTblock	1	USRT	50	600000	#ff0000	10pct	1	50pct	50pct	5000	267705	272736	267236	57	273040	304	0	2	48
6.1.1	win	2020-04-21	07:48:00	1	1	1	USRTblock	1	USRT	51	600000	#ff0000	10pct	1	50pct	50pct	2000	273048	275069	272736	57	275437	368	0	2	49
6.1.1	win	2020-04-21	07:48:00	1	1	1	USRTblock	1	USRT	52	600000	#ff0000	10pct	1	50pct	50pct	3000	275445	278469	275069	57	278882	413	0	2	50
6.1.1	win	2020-04-21	07:48:00	1	1	1	USRTblock	1	USRT	53	600000	#ff0000	10pct	1	50pct	50pct	6000	278890	284918	278469	57	285192	274	0	2	51
6.1.1	win	2020-04-21	07:48:00	1	1	1	USRTblock	1	USRT	54	600000	#ff0000	10pct	1	50pct	50pct	2000	285200	287218	284918	57	287647	429	0	2	52
6.1.1	win	2020-04-21	07:48:00	1	1	1	USRTblock	1	USRT	55	600000	#ff0000	10pct	1	50pct	50pct	5000	287656	292684	287218	57	293031	347	0	2	53
6.1.1	win	2020-04-21	07:48:00	1	1	1	USRTblock	1	USRT	56	600000	#ff0000	10pct	1	50pct	50pct	3000	293039	296067	292684	57	296931	864	0	2	54
6.1.1	win	2020-04-21	07:48:00	1	1	1	USRTblock	1	USRT	57	600000	#ff0000	10pct	1	50pct	50pct	7000	296940	303967	296067	57	304474	507	0	2	55
6.1.1	win	2020-04-21	07:48:00	1	1	1	USRTblock	1	USRT	58	600000	#ff0000	10pct	1	50pct	50pct	7000	304482	311498	303967	57	311994	496	0	2	56
6.1.1	win	2020-04-21	07:48:00	1	1	1	USRTblock	1	USRT	59	600000	#ff0000	10pct	1	50pct	50pct	8000	312002	320032	311498	57	320544	512	0	2	57
6.1.1	win	2020-04-21	07:48:00	1	1	1	USRTblock	1	USRT	60	600000	#ff0000	10pct	1	50pct	50pct	6000	320552	326580	320032	57	326975	395	0	2	58
6.1.1	win	2020-04-21	07:48:00	1	1	1	USRTblock	1	USRT	61	600000	#ff0000	10pct	1	50pct	50pct	7000	326984	334014	326580	57	334894	880	0	2	59
6.1.1	win	2020-04-21	07:48:00	1	1	1	USRTblock	1	USRT	62	600000	#ff0000	10pct	1	50pct	50pct	4000	334903	338929	334014	57	339322	393	0	2	60
6.1.1	win	2020-04-21	07:48:00	1	1	1	USRTblock	1	USRT	63	600000	#ff0000	10pct	1	50pct	50pct	2000	339330	341345	338929	57	341690	345	0	2	61
6.1.1	win	2020-04-21	07:48:00	1	1	1	USRTblock	1	USRT	64	600000	#ff0000	10pct	1	50pct	50pct	6000	341737	347762	341345	57	348253	491	0	2	62
6.1.1	win	2020-04-21	07:48:00	1	1	1	USRTblock	1	USRT	65	600000	#ff0000	10pct	1	50pct	50pct	8000	348261	356278	347762	57	356618	340	0	2	63
6.1.1	win	2020-04-21	07:48:00	1	1	1	USRTblock	1	USRT	66	600000	#ff0000	10pct	1	50pct	50pct	5000	356626	361644	356278	57	361874	230	0	2	64
6.1.1	win	2020-04-21	07:48:00	1	1	1	USRTblock	1	USRT	67	600000	#ff0000	10pct	1	50pct	50pct	8000	361903	369926	361644	57	370175	249	0	2	65
6.1.1	win	2020-04-21	07:48:00	1	1	1	USRTblock	1	USRT	68	600000	#ff0000	10pct	1	50pct	50pct	8000	370183	-1	369926	57	377738	0	1	3	66
6.1.1	win	2020-04-21	07:48:00	1	1	1	USRTblock	1	USRT	69	600000	#ff0000	10pct	1	50pct	50pct	2000	377746	379775	-1	57	380129	354	0	3	67
6.1.1	win	2020-04-21	07:48:00	1	1	1	USRTblock	1	USRT	70	600000	#ff0000	10pct	1	50pct	50pct	2000	380137	382158	379775	57	382478	320	0	3	68
6.1.1	win	2020-04-21	07:48:00	1	1	1	USRTblock	1	USRT	71	600000	#ff0000	10pct	1	50pct	50pct	8000	382486	390508	382158	57	390769	261	0	3	69
6.1.1	win	2020-04-21	07:48:00	1	1	1	USRTblock	1	USRT	72	600000	#ff0000	10pct	1	50pct	50pct	2000	390777	392807	390508	57	393215	408	0	3	70
6.1.1	win	2020-04-21	07:48:00	1	1	1	USRTblock	1	USRT	73	600000	#ff0000	10pct	1	50pct	50pct	7000	393222	-1	392807	57	395833	0	1	4	71
6.1.1	win	2020-04-21	07:48:00	1	1	1	USRTblock	1	USRT	74	600000	#ff0000	10pct	1	50pct	50pct	3000	395840	398856	-1	57	399149	293	0	4	72
6.1.1	win	2020-04-21	07:48:00	1	1	1	USRTblock	1	USRT	75	600000	#ff0000	10pct	1	50pct	50pct	2000	399157	401172	398856	57	401445	273	0	4	73
6.1.1	win	2020-04-21	07:48:00	1	1	1	USRTblock	1	USRT	76	600000	#ff0000	10pct	1	50pct	50pct	6000	401453	407472	401172	57	407736	264	0	4	74
6.1.1	win	2020-04-21	07:48:00	1	1	1	USRTblock	1	USRT	77	600000	#ff0000	10pct	1	50pct	50pct	7000	407744	414772	407472	57	415042	270	0	4	75
6.1.1	win	2020-04-21	07:48:00	1	1	1	USRTblock	1	USRT	78	600000	#ff0000	10pct	1	50pct	50pct	8000	415050	423071	414772	57	423368	297	0	4	76
6.1.1	win	2020-04-21	07:48:00	1	1	1	USRTblock	1	USRT	79	600000	#ff0000	10pct	1	50pct	50pct	5000	423375	428403	423071	57	428761	358	0	4	77
6.1.1	win	2020-04-21	07:48:00	1	1	1	USRTblock	1	USRT	80	600000	#ff0000	10pct	1	50pct	50pct	5000	428769	433786	428403	57	434050	264	0	4	78
6.1.1	win	2020-04-21	07:48:00	1	1	1	USRTblock	1	USRT	81	600000	#ff0000	10pct	1	50pct	50pct	4000	434058	438086	433786	57	438396	310	0	4	79
6.1.1	win	2020-04-21	07:48:00	1	1	1	USRTblock	1	USRT	82	600000	#ff0000	10pct	1	50pct	50pct	4000	438404	442419	438086	57	442711	292	0	4	80
6.1.1	win	2020-04-21	07:48:00	1	1	1	USRTblock	1	USRT	83	600000	#ff0000	10pct	1	50pct	50pct	3000	442720	445751	442419	57	446088	337	0	4	81
6.1.1	win	2020-04-21	07:48:00	1	1	1	USRTblock	1	USRT	84	600000	#ff0000	10pct	1	50pct	50pct	7000	446096	453118	445751	57	453402	284	0	4	82
6.1.1	win	2020-04-21	07:48:00	1	1	1	USRTblock	1	USRT	85	600000	#ff0000	10pct	1	50pct	50pct	3000	453409	456434	453118	57	456716	282	0	4	83
6.1.1	win	2020-04-21	07:48:00	1	1	1	USRTblock	1	USRT	86	600000	#ff0000	10pct	1	50pct	50pct	6000	456724	462750	456434	57	463027	277	0	4	84
6.1.1	win	2020-04-21	07:48:00	1	1	1	USRTblock	1	USRT	87	600000	#ff0000	10pct	1	50pct	50pct	5000	463035	468066	462750	57	468381	315	0	4	85
6.1.1	win	2020-04-21	07:48:00	1	1	1	USRTblock	1	USRT	88	600000	#ff0000	10pct	1	50pct	50pct	4000	468390	472415	468066	57	472748	333	0	4	86
6.1.1	win	2020-04-21	07:48:00	1	1	1	USRTblock	1	USRT	89	600000	#ff0000	10pct	1	50pct	50pct	8000	472756	480782	472415	57	481060	278	0	4	87
6.1.1	win	2020-04-21	07:48:00	1	1	1	USRTblock	1	USRT	90	600000	#ff0000	10pct	1	50pct	50pct	7000	481069	488097	480782	57	488399	302	0	4	88
6.1.1	win	2020-04-21	07:48:00	1	1	1	USRTblock	1	USRT	91	600000	#ff0000	10pct	1	50pct	50pct	6000	488407	494430	488097	57	494720	290	0	4	89
6.1.1	win	2020-04-21	07:48:00	1	1	1	USRTblock	1	USRT	92	600000	#ff0000	10pct	1	50pct	50pct	5000	494728	499746	494430	57	500045	299	0	4	90
6.1.1	win	2020-04-21	07:48:00	1	1	1	USRTblock	1	USRT	93	600000	#ff0000	10pct	1	50pct	50pct	5000	500053	505079	499746	57	505351	272	0	4	91
6.1.1	win	2020-04-21	07:48:00	1	1	1	USRTblock	1	USRT	94	600000	#ff0000	10pct	1	50pct	50pct	2000	505359	507379	505079	57	507855	476	0	4	92
6.1.1	win	2020-04-21	07:48:00	1	1	1	USRTblock	1	USRT	95	600000	#ff0000	10pct	1	50pct	50pct	4000	507864	511896	507379	57	512170	274	0	4	93
6.1.1	win	2020-04-21	07:48:00	1	1	1	USRTblock	1	USRT	96	600000	#ff0000	10pct	1	50pct	50pct	4000	512179	516211	511896	57	516516	305	0	4	94
6.1.1	win	2020-04-21	07:48:00	1	1	1	USRTblock	1	USRT	97	600000	#ff0000	10pct	1	50pct	50pct	8000	516524	524544	516211	57	524848	304	0	4	95
6.1.1	win	2020-04-21	07:48:00	1	1	1	USRTblock	1	USRT	98	600000	#ff0000	10pct	1	50pct	50pct	7000	524856	531877	524544	57	532154	277	0	4	96
6.1.1	win	2020-04-21	07:48:00	1	1	1	USRTblock	1	USRT	99	600000	#ff0000	10pct	1	50pct	50pct	3000	532162	535192	531877	57	535489	297	0	4	97
6.1.1	win	2020-04-21	07:48:00	1	1	1	USRTblock	1	USRT	100	600000	#ff0000	10pct	1	50pct	50pct	6000	535496	541526	535192	57	541800	274	0	4	98
6.1.1	win	2020-04-21	07:48:00	1	1	1	USRTblock	1	USRT	101	600000	#ff0000	10pct	1	50pct	50pct	8000	541808	549826	541526	57	550125	299	0	4	99
6.1.1	win	2020-04-21	07:48:00	1	1	1	USRTblock	1	USRT	102	600000	#ff0000	10pct	1	50pct	50pct	3000	550134	553157	549826	57	553559	402	0	4	100
6.1.1	win	2020-04-21	07:48:00	1	1	1	USRTblock	1	USRT	103	600000	#ff0000	10pct	1	50pct	50pct	4000	553568	557590	553157	57	557942	352	0	4	101
6.1.1	win	2020-04-21	07:48:00	1	1	1	USRTblock	1	USRT	104	600000	#ff0000	10pct	1	50pct	50pct	5000	557951	562974	557590	57	563248	274	0	4	102
6.1.1	win	2020-04-21	07:48:00	1	1	1	USRTblock	1	USRT	105	600000	#ff0000	10pct	1	50pct	50pct	2000	563256	565273	562974	57	565599	326	0	4	103
6.1.1	win	2020-04-21	07:48:00	1	1	1	USRTblock	1	USRT	106	600000	#ff0000	10pct	1	50pct	50pct	7000	565608	572639	565273	57	572895	256	0	4	104
6.1.1	win	2020-04-21	07:48:00	1	1	1	USRTblock	1	USRT	107	600000	#ff0000	10pct	1	50pct	50pct	5000	572903	577922	572639	57	578232	310	0	4	105
6.1.1	win	2020-04-21	07:48:00	1	1	1	USRTblock	1	USRT	108	600000	#ff0000	10pct	1	50pct	50pct	3000	578240	581255	577922	57	581646	391	0	4	106
6.1.1	win	2020-04-21	07:48:00	1	1	1	USRTblock	1	USRT	109	600000	#ff0000	10pct	1	50pct	50pct	4000	581656	585671	581255	57	585973	302	0	4	107
6.1.1	win	2020-04-21	07:48:00	1	1	1	USRTblock	1	USRT	110	600000	#ff0000	10pct	1	50pct	50pct	4000	585982	590004	585671	57	590283	279	0	4	108
6.1.1	win	2020-04-21	07:48:00	1	1	1	USRTblock	1	USRT	111	600000	#ff0000	10pct	1	50pct	50pct	8000	590291	598320	590004	57	598612	292	0	4	109
6.1.1	win	2020-04-21	07:48:00	1	1	1	USRTblock	1	USRT	112	600000	#ff0000	10pct	1	50pct	50pct	2000	598620	600636	598320	57	601037	401	0	4	110
6.1.1	win	2020-04-21	07:48:00	1	1	1	USRTblock	1	USRT	113	600000	#ff0000	10pct	1	50pct	50pct	7000	601045	608070	600636	57	608337	267	0	4	111
6.1.1	win	2020-04-21	07:48:00	1	1	1	USRTblock	1	USRT	114	600000	#ff0000	10pct	1	50pct	50pct	3000	608345	-1	608070	0	608493	0	1	5	112
