build	computer.platform	date	time	subject	group	sessionid	blockcode	blocknum	trialcode	trialnum	testduration	targetcolor	targetsize	fixed	targetx	targety	stiminterval	trialStart	shape.targetcircle.timestamp	lastCircleTimestamp	response	rt_elapsed	rt	EarlyResponse	countEarlyResponses	countResponses
6.1.1	win	2020-04-21	19:28:22	1	1	1	USRTblock	1	USRT	3	600000	#ff0000	10pct	1	50pct	50pct	6000	2666	8682	1912	57	9020	338	0	0	1
6.1.1	win	2020-04-21	19:28:22	1	1	1	USRTblock	1	USRT	4	600000	#ff0000	10pct	1	50pct	50pct	6000	9042	15048	8682	57	15363	315	0	0	2
6.1.1	win	2020-04-21	19:28:22	1	1	1	USRTblock	1	USRT	5	600000	#ff0000	10pct	1	50pct	50pct	2000	15366	17380	15048	57	17770	390	0	0	3
6.1.1	win	2020-04-21	19:28:22	1	1	1	USRTblock	1	USRT	6	600000	#ff0000	10pct	1	50pct	50pct	7000	17774	24780	17380	57	25097	317	0	0	4
6.1.1	win	2020-04-21	19:28:22	1	1	1	USRTblock	1	USRT	7	600000	#ff0000	10pct	1	50pct	50pct	2000	25100	27113	24780	57	27588	475	0	0	5
6.1.1	win	2020-04-21	19:28:22	1	1	1	USRTblock	1	USRT	8	600000	#ff0000	10pct	1	50pct	50pct	3000	27591	30596	27113	57	30994	398	0	0	6
6.1.1	win	2020-04-21	19:28:22	1	1	1	USRTblock	1	USRT	9	600000	#ff0000	10pct	1	50pct	50pct	6000	30997	37012	30596	57	37474	462	0	0	7
6.1.1	win	2020-04-21	19:28:22	1	1	1	USRTblock	1	USRT	10	600000	#ff0000	10pct	1	50pct	50pct	2000	37477	39495	37012	57	39972	477	0	0	8
6.1.1	win	2020-04-21	19:28:22	1	1	1	USRTblock	1	USRT	11	600000	#ff0000	10pct	1	50pct	50pct	7000	39975	46995	39495	57	47285	290	0	0	9
6.1.1	win	2020-04-21	19:28:22	1	1	1	USRTblock	1	USRT	12	600000	#ff0000	10pct	1	50pct	50pct	6000	47288	53294	46995	57	53623	329	0	0	10
6.1.1	win	2020-04-21	19:28:22	1	1	1	USRTblock	1	USRT	13	600000	#ff0000	10pct	1	50pct	50pct	8000	53626	61644	53294	57	62089	445	0	0	11
6.1.1	win	2020-04-21	19:28:22	1	1	1	USRTblock	1	USRT	14	600000	#ff0000	10pct	1	50pct	50pct	4000	62094	66109	61644	57	66588	479	0	0	12
6.1.1	win	2020-04-21	19:28:22	1	1	1	USRTblock	1	USRT	15	600000	#ff0000	10pct	1	50pct	50pct	8000	66591	74608	66109	57	75119	511	0	0	13
6.1.1	win	2020-04-21	19:28:22	1	1	1	USRTblock	1	USRT	16	600000	#ff0000	10pct	1	50pct	50pct	6000	75122	81141	74608	57	81600	459	0	0	14
6.1.1	win	2020-04-21	19:28:22	1	1	1	USRTblock	1	USRT	17	600000	#ff0000	10pct	1	50pct	50pct	5000	81604	86624	81141	57	87013	389	0	0	15
6.1.1	win	2020-04-21	19:28:22	1	1	1	USRTblock	1	USRT	18	600000	#ff0000	10pct	1	50pct	50pct	2000	87016	89024	86624	57	89606	582	0	0	16
6.1.1	win	2020-04-21	19:28:22	1	1	1	USRTblock	1	USRT	19	600000	#ff0000	10pct	1	50pct	50pct	4000	89609	-1	89024	57	92705	0	1	1	17
6.1.1	win	2020-04-21	19:28:22	1	1	1	USRTblock	1	USRT	20	600000	#ff0000	10pct	1	50pct	50pct	3000	92709	95723	-1	57	96060	337	0	1	18
6.1.1	win	2020-04-21	19:28:22	1	1	1	USRTblock	1	USRT	21	600000	#ff0000	10pct	1	50pct	50pct	8000	96063	104073	95723	57	104526	453	0	1	19
6.1.1	win	2020-04-21	19:28:22	1	1	1	USRTblock	1	USRT	22	600000	#ff0000	10pct	1	50pct	50pct	3000	104530	107539	104073	57	107946	407	0	1	20
6.1.1	win	2020-04-21	19:28:22	1	1	1	USRTblock	1	USRT	23	600000	#ff0000	10pct	1	50pct	50pct	5000	107950	112955	107539	57	113336	381	0	1	21
6.1.1	win	2020-04-21	19:28:22	1	1	1	USRTblock	1	USRT	24	600000	#ff0000	10pct	1	50pct	50pct	5000	113340	118354	112955	57	118721	367	0	1	22
6.1.1	win	2020-04-21	19:28:22	1	1	1	USRTblock	1	USRT	25	600000	#ff0000	10pct	1	50pct	50pct	7000	118725	125737	118354	57	126051	314	0	1	23
6.1.1	win	2020-04-21	19:28:22	1	1	1	USRTblock	1	USRT	26	600000	#ff0000	10pct	1	50pct	50pct	6000	126055	132070	125737	57	132720	650	0	1	24
6.1.1	win	2020-04-21	19:28:22	1	1	1	USRTblock	1	USRT	27	600000	#ff0000	10pct	1	50pct	50pct	7000	132724	139735	132070	57	140157	422	0	1	25
6.1.1	win	2020-04-21	19:28:22	1	1	1	USRTblock	1	USRT	28	600000	#ff0000	10pct	1	50pct	50pct	7000	140161	147168	139735	57	147596	428	0	1	26
6.1.1	win	2020-04-21	19:28:22	1	1	1	USRTblock	1	USRT	29	600000	#ff0000	10pct	1	50pct	50pct	3000	147600	150618	147168	57	151107	489	0	1	27
6.1.1	win	2020-04-21	19:28:22	1	1	1	USRTblock	1	USRT	30	600000	#ff0000	10pct	1	50pct	50pct	7000	151110	158117	150618	57	158515	398	0	1	28
6.1.1	win	2020-04-21	19:28:22	1	1	1	USRTblock	1	USRT	31	600000	#ff0000	10pct	1	50pct	50pct	7000	158518	165534	158117	57	165901	367	0	1	29
6.1.1	win	2020-04-21	19:28:22	1	1	1	USRTblock	1	USRT	32	600000	#ff0000	10pct	1	50pct	50pct	6000	165904	171915	165534	57	172218	303	0	1	30
6.1.1	win	2020-04-21	19:28:22	1	1	1	USRTblock	1	USRT	33	600000	#ff0000	10pct	1	50pct	50pct	8000	172221	180232	171915	57	180525	293	0	1	31
6.1.1	win	2020-04-21	19:28:22	1	1	1	USRTblock	1	USRT	34	600000	#ff0000	10pct	1	50pct	50pct	4000	180528	184548	180232	57	185129	581	0	1	32
6.1.1	win	2020-04-21	19:28:22	1	1	1	USRTblock	1	USRT	35	600000	#ff0000	10pct	1	50pct	50pct	5000	185132	190147	184548	57	190577	430	0	1	33
6.1.1	win	2020-04-21	19:28:22	1	1	1	USRTblock	1	USRT	36	600000	#ff0000	10pct	1	50pct	50pct	4000	190581	194597	190147	57	194993	396	0	1	34
6.1.1	win	2020-04-21	19:28:22	1	1	1	USRTblock	1	USRT	37	600000	#ff0000	10pct	1	50pct	50pct	5000	194996	200012	194597	57	200400	388	0	1	35
6.1.1	win	2020-04-21	19:28:22	1	1	1	USRTblock	1	USRT	38	600000	#ff0000	10pct	1	50pct	50pct	6000	200404	206413	200012	57	206768	355	0	1	36
6.1.1	win	2020-04-21	19:28:22	1	1	1	USRTblock	1	USRT	39	600000	#ff0000	10pct	1	50pct	50pct	2000	206772	208778	206413	57	209291	513	0	1	37
6.1.1	win	2020-04-21	19:28:22	1	1	1	USRTblock	1	USRT	40	600000	#ff0000	10pct	1	50pct	50pct	3000	209295	212312	208778	57	212696	384	0	1	38
6.1.1	win	2020-04-21	19:28:22	1	1	1	USRTblock	1	USRT	41	600000	#ff0000	10pct	1	50pct	50pct	7000	212699	-1	212312	57	218444	0	1	2	39
6.1.1	win	2020-04-21	19:28:22	1	1	1	USRTblock	1	USRT	42	600000	#ff0000	10pct	1	50pct	50pct	5000	218448	223460	-1	57	223906	446	0	2	40
6.1.1	win	2020-04-21	19:28:22	1	1	1	USRTblock	1	USRT	43	600000	#ff0000	10pct	1	50pct	50pct	7000	223910	230926	223460	57	231321	395	0	2	41
6.1.1	win	2020-04-21	19:28:22	1	1	1	USRTblock	1	USRT	44	600000	#ff0000	10pct	1	50pct	50pct	7000	231325	238343	230926	57	239196	853	0	2	42
6.1.1	win	2020-04-21	19:28:22	1	1	1	USRTblock	1	USRT	45	600000	#ff0000	10pct	1	50pct	50pct	4000	239199	243209	238343	57	243584	375	0	2	43
6.1.1	win	2020-04-21	19:28:22	1	1	1	USRTblock	1	USRT	46	600000	#ff0000	10pct	1	50pct	50pct	3000	243588	246608	243209	57	247001	393	0	2	44
6.1.1	win	2020-04-21	19:28:22	1	1	1	USRTblock	1	USRT	47	600000	#ff0000	10pct	1	50pct	50pct	5000	247004	252024	246608	57	252390	366	0	2	45
6.1.1	win	2020-04-21	19:28:22	1	1	1	USRTblock	1	USRT	48	600000	#ff0000	10pct	1	50pct	50pct	8000	252394	260407	252024	57	260733	326	0	2	46
6.1.1	win	2020-04-21	19:28:22	1	1	1	USRTblock	1	USRT	49	600000	#ff0000	10pct	1	50pct	50pct	6000	260737	266757	260407	57	267193	436	0	2	47
6.1.1	win	2020-04-21	19:28:22	1	1	1	USRTblock	1	USRT	50	600000	#ff0000	10pct	1	50pct	50pct	5000	267197	272205	266757	57	272542	337	0	2	48
6.1.1	win	2020-04-21	19:28:22	1	1	1	USRTblock	1	USRT	51	600000	#ff0000	10pct	1	50pct	50pct	4000	272545	276555	272205	57	276902	347	0	2	49
6.1.1	win	2020-04-21	19:28:22	1	1	1	USRTblock	1	USRT	52	600000	#ff0000	10pct	1	50pct	50pct	7000	276906	283922	276555	57	284280	358	0	2	50
6.1.1	win	2020-04-21	19:28:22	1	1	1	USRTblock	1	USRT	53	600000	#ff0000	10pct	1	50pct	50pct	8000	284284	292304	283922	57	292583	279	0	2	51
6.1.1	win	2020-04-21	19:28:22	1	1	1	USRTblock	1	USRT	54	600000	#ff0000	10pct	1	50pct	50pct	4000	292586	296604	292304	57	297303	699	0	2	52
6.1.1	win	2020-04-21	19:28:22	1	1	1	USRTblock	1	USRT	55	600000	#ff0000	10pct	1	50pct	50pct	4000	297306	301319	296604	57	301697	378	0	2	53
6.1.1	win	2020-04-21	19:28:22	1	1	1	USRTblock	1	USRT	56	600000	#ff0000	10pct	1	50pct	50pct	4000	301701	305719	301319	57	306005	286	0	2	54
6.1.1	win	2020-04-21	19:28:22	1	1	1	USRTblock	1	USRT	57	600000	#ff0000	10pct	1	50pct	50pct	3000	306010	309018	305719	57	309340	322	0	2	55
6.1.1	win	2020-04-21	19:28:22	1	1	1	USRTblock	1	USRT	58	600000	#ff0000	10pct	1	50pct	50pct	8000	309343	317351	309018	57	317635	284	0	2	56
6.1.1	win	2020-04-21	19:28:22	1	1	1	USRTblock	1	USRT	59	600000	#ff0000	10pct	1	50pct	50pct	7000	317638	324651	317351	57	324951	300	0	2	57
6.1.1	win	2020-04-21	19:28:22	1	1	1	USRTblock	1	USRT	60	600000	#ff0000	10pct	1	50pct	50pct	4000	324954	328967	324651	57	329344	377	0	2	58
6.1.1	win	2020-04-21	19:28:22	1	1	1	USRTblock	1	USRT	61	600000	#ff0000	10pct	1	50pct	50pct	7000	329347	336366	328967	57	336691	325	0	2	59
6.1.1	win	2020-04-21	19:28:22	1	1	1	USRTblock	1	USRT	62	600000	#ff0000	10pct	1	50pct	50pct	7000	336695	343715	336366	57	344063	348	0	2	60
6.1.1	win	2020-04-21	19:28:22	1	1	1	USRTblock	1	USRT	63	600000	#ff0000	10pct	1	50pct	50pct	2000	344066	346082	343715	57	346450	368	0	2	61
6.1.1	win	2020-04-21	19:28:22	1	1	1	USRTblock	1	USRT	64	600000	#ff0000	10pct	1	50pct	50pct	2000	346454	348465	346082	57	348785	320	0	2	62
6.1.1	win	2020-04-21	19:28:22	1	1	1	USRTblock	1	USRT	65	600000	#ff0000	10pct	1	50pct	50pct	6000	348789	354797	348465	57	355110	313	0	2	63
6.1.1	win	2020-04-21	19:28:22	1	1	1	USRTblock	1	USRT	66	600000	#ff0000	10pct	1	50pct	50pct	3000	355113	358130	354797	57	358441	311	0	2	64
6.1.1	win	2020-04-21	19:28:22	1	1	1	USRTblock	1	USRT	67	600000	#ff0000	10pct	1	50pct	50pct	3000	358445	361463	358130	57	361778	315	0	2	65
6.1.1	win	2020-04-21	19:28:22	1	1	1	USRTblock	1	USRT	68	600000	#ff0000	10pct	1	50pct	50pct	6000	361781	367796	361463	57	368094	298	0	2	66
6.1.1	win	2020-04-21	19:28:22	1	1	1	USRTblock	1	USRT	69	600000	#ff0000	10pct	1	50pct	50pct	5000	368099	373112	367796	57	373479	367	0	2	67
6.1.1	win	2020-04-21	19:28:22	1	1	1	USRTblock	1	USRT	70	600000	#ff0000	10pct	1	50pct	50pct	7000	373482	380495	373112	57	380801	306	0	2	68
6.1.1	win	2020-04-21	19:28:22	1	1	1	USRTblock	1	USRT	71	600000	#ff0000	10pct	1	50pct	50pct	7000	380805	387811	380495	57	388115	304	0	2	69
6.1.1	win	2020-04-21	19:28:22	1	1	1	USRTblock	1	USRT	72	600000	#ff0000	10pct	1	50pct	50pct	4000	388119	392126	387811	57	392530	404	0	2	70
6.1.1	win	2020-04-21	19:28:22	1	1	1	USRTblock	1	USRT	73	600000	#ff0000	10pct	1	50pct	50pct	4000	392534	396544	392126	57	396859	315	0	2	71
6.1.1	win	2020-04-21	19:28:22	1	1	1	USRTblock	1	USRT	74	600000	#ff0000	10pct	1	50pct	50pct	4000	396862	400876	396544	57	401174	298	0	2	72
6.1.1	win	2020-04-21	19:28:22	1	1	1	USRTblock	1	USRT	75	600000	#ff0000	10pct	1	50pct	50pct	2000	401178	403192	400876	57	403539	347	0	2	73
6.1.1	win	2020-04-21	19:28:22	1	1	1	USRTblock	1	USRT	76	600000	#ff0000	10pct	1	50pct	50pct	6000	403542	409559	403192	57	409859	300	0	2	74
6.1.1	win	2020-04-21	19:28:22	1	1	1	USRTblock	1	USRT	77	600000	#ff0000	10pct	1	50pct	50pct	8000	409863	417875	409559	57	418179	304	0	2	75
6.1.1	win	2020-04-21	19:28:22	1	1	1	USRTblock	1	USRT	78	600000	#ff0000	10pct	1	50pct	50pct	2000	418183	420190	417875	57	420530	340	0	2	76
6.1.1	win	2020-04-21	19:28:22	1	1	1	USRTblock	1	USRT	79	600000	#ff0000	10pct	1	50pct	50pct	8000	420533	428540	420190	57	428833	293	0	2	77
6.1.1	win	2020-04-21	19:28:22	1	1	1	USRTblock	1	USRT	80	600000	#ff0000	10pct	1	50pct	50pct	8000	428836	436856	428540	57	437136	280	0	2	78
6.1.1	win	2020-04-21	19:28:22	1	1	1	USRTblock	1	USRT	81	600000	#ff0000	10pct	1	50pct	50pct	3000	437140	440155	436856	57	440467	312	0	2	79
6.1.1	win	2020-04-21	19:28:22	1	1	1	USRTblock	1	USRT	82	600000	#ff0000	10pct	1	50pct	50pct	6000	440471	446488	440155	57	446774	286	0	2	80
6.1.1	win	2020-04-21	19:28:22	1	1	1	USRTblock	1	USRT	83	600000	#ff0000	10pct	1	50pct	50pct	5000	446778	451787	446488	57	452058	271	0	2	81
6.1.1	win	2020-04-21	19:28:22	1	1	1	USRTblock	1	USRT	84	600000	#ff0000	10pct	1	50pct	50pct	6000	452061	458071	451787	57	458439	368	0	2	82
6.1.1	win	2020-04-21	19:28:22	1	1	1	USRTblock	1	USRT	85	600000	#ff0000	10pct	1	50pct	50pct	3000	458443	461453	458071	57	461798	345	0	2	83
6.1.1	win	2020-04-21	19:28:22	1	1	1	USRTblock	1	USRT	86	600000	#ff0000	10pct	1	50pct	50pct	6000	461802	467819	461453	57	468087	268	0	2	84
6.1.1	win	2020-04-21	19:28:22	1	1	1	USRTblock	1	USRT	87	600000	#ff0000	10pct	1	50pct	50pct	4000	468091	472102	467819	57	472398	296	0	2	85
6.1.1	win	2020-04-21	19:28:22	1	1	1	USRTblock	1	USRT	88	600000	#ff0000	10pct	1	50pct	50pct	2000	472402	474418	472102	57	474784	366	0	2	86
6.1.1	win	2020-04-21	19:28:22	1	1	1	USRTblock	1	USRT	89	600000	#ff0000	10pct	1	50pct	50pct	4000	474788	478801	474418	57	479071	270	0	2	87
6.1.1	win	2020-04-21	19:28:22	1	1	1	USRTblock	1	USRT	90	600000	#ff0000	10pct	1	50pct	50pct	3000	479074	482084	478801	57	482404	320	0	2	88
6.1.1	win	2020-04-21	19:28:22	1	1	1	USRTblock	1	USRT	91	600000	#ff0000	10pct	1	50pct	50pct	7000	482408	489417	482084	57	489733	316	0	2	89
6.1.1	win	2020-04-21	19:28:22	1	1	1	USRTblock	1	USRT	92	600000	#ff0000	10pct	1	50pct	50pct	4000	489736	493750	489417	57	494112	362	0	2	90
6.1.1	win	2020-04-21	19:28:22	1	1	1	USRTblock	1	USRT	93	600000	#ff0000	10pct	1	50pct	50pct	4000	494116	498133	493750	57	498495	362	0	2	91
6.1.1	win	2020-04-21	19:28:22	1	1	1	USRTblock	1	USRT	94	600000	#ff0000	10pct	1	50pct	50pct	3000	498500	501517	498133	57	501834	317	0	2	92
6.1.1	win	2020-04-21	19:28:22	1	1	1	USRTblock	1	USRT	95	600000	#ff0000	10pct	1	50pct	50pct	8000	501838	509849	501517	57	510215	366	0	2	93
6.1.1	win	2020-04-21	19:28:22	1	1	1	USRTblock	1	USRT	96	600000	#ff0000	10pct	1	50pct	50pct	6000	510219	516231	509849	57	516520	289	0	2	94
6.1.1	win	2020-04-21	19:28:22	1	1	1	USRTblock	1	USRT	97	600000	#ff0000	10pct	1	50pct	50pct	4000	516524	520531	516231	57	520812	281	0	2	95
6.1.1	win	2020-04-21	19:28:22	1	1	1	USRTblock	1	USRT	98	600000	#ff0000	10pct	1	50pct	50pct	6000	520815	526830	520531	57	527206	376	0	2	96
6.1.1	win	2020-04-21	19:28:22	1	1	1	USRTblock	1	USRT	99	600000	#ff0000	10pct	1	50pct	50pct	4000	527209	531229	526830	57	531563	334	0	2	97
6.1.1	win	2020-04-21	19:28:22	1	1	1	USRTblock	1	USRT	100	600000	#ff0000	10pct	1	50pct	50pct	2000	531566	533579	531229	57	534043	464	0	2	98
6.1.1	win	2020-04-21	19:28:22	1	1	1	USRTblock	1	USRT	101	600000	#ff0000	10pct	1	50pct	50pct	6000	534046	540063	533579	57	540373	310	0	2	99
6.1.1	win	2020-04-21	19:28:22	1	1	1	USRTblock	1	USRT	102	600000	#ff0000	10pct	1	50pct	50pct	6000	540379	546394	540063	57	546796	402	0	2	100
6.1.1	win	2020-04-21	19:28:22	1	1	1	USRTblock	1	USRT	103	600000	#ff0000	10pct	1	50pct	50pct	2000	546799	548811	546394	57	549236	425	0	2	101
6.1.1	win	2020-04-21	19:28:22	1	1	1	USRTblock	1	USRT	104	600000	#ff0000	10pct	1	50pct	50pct	7000	549239	556244	548811	57	556591	347	0	2	102
6.1.1	win	2020-04-21	19:28:22	1	1	1	USRTblock	1	USRT	105	600000	#ff0000	10pct	1	50pct	50pct	4000	556595	560610	556244	57	561021	411	0	2	103
6.1.1	win	2020-04-21	19:28:22	1	1	1	USRTblock	1	USRT	106	600000	#ff0000	10pct	1	50pct	50pct	4000	561024	565043	560610	57	565437	394	0	2	104
6.1.1	win	2020-04-21	19:28:22	1	1	1	USRTblock	1	USRT	107	600000	#ff0000	10pct	1	50pct	50pct	5000	565441	570460	565043	57	570785	325	0	2	105
6.1.1	win	2020-04-21	19:28:22	1	1	1	USRTblock	1	USRT	108	600000	#ff0000	10pct	1	50pct	50pct	4000	570790	574808	570460	57	575147	339	0	2	106
6.1.1	win	2020-04-21	19:28:22	1	1	1	USRTblock	1	USRT	109	600000	#ff0000	10pct	1	50pct	50pct	6000	575151	581158	574808	57	581471	313	0	2	107
6.1.1	win	2020-04-21	19:28:22	1	1	1	USRTblock	1	USRT	110	600000	#ff0000	10pct	1	50pct	50pct	5000	581475	586490	581158	57	586797	307	0	2	108
6.1.1	win	2020-04-21	19:28:22	1	1	1	USRTblock	1	USRT	111	600000	#ff0000	10pct	1	50pct	50pct	8000	586801	594807	586490	57	595070	263	0	2	109
6.1.1	win	2020-04-21	19:28:22	1	1	1	USRTblock	1	USRT	112	600000	#ff0000	10pct	1	50pct	50pct	5000	595073	600089	594807	57	600462	373	0	2	110
6.1.1	win	2020-04-21	19:28:22	1	1	1	USRTblock	1	USRT	113	600000	#ff0000	10pct	1	50pct	50pct	8000	600466	-1	600089	0	600583	0	1	3	111
