build	computer.platform	date	time	subject	group	sessionid	blockcode	blocknum	trialcode	trialnum	testduration	targetcolor	targetsize	fixed	targetx	targety	stiminterval	trialStart	shape.targetcircle.timestamp	lastCircleTimestamp	response	rt_elapsed	rt	EarlyResponse	countEarlyResponses	countResponses
6.1.1	win	2020-04-03	19:02:09	1	1	1	USRTblock	1	USRT	3	600000	#ff0000	10pct	1	50pct	50pct	6000	2463	8481	1845	57	8789	308	0	0	1
6.1.1	win	2020-04-03	19:02:09	1	1	1	USRTblock	1	USRT	4	600000	#ff0000	10pct	1	50pct	50pct	7000	8801	15814	8481	57	16080	266	0	0	2
6.1.1	win	2020-04-03	19:02:09	1	1	1	USRTblock	1	USRT	5	600000	#ff0000	10pct	1	50pct	50pct	2000	16084	18097	15814	57	18686	589	0	0	3
6.1.1	win	2020-04-03	19:02:09	1	1	1	USRTblock	1	USRT	6	600000	#ff0000	10pct	1	50pct	50pct	3000	18689	21697	18097	57	21989	292	0	0	4
6.1.1	win	2020-04-03	19:02:09	1	1	1	USRTblock	1	USRT	7	600000	#ff0000	10pct	1	50pct	50pct	8000	21995	30013	21697	57	30274	261	0	0	5
6.1.1	win	2020-04-03	19:02:09	1	1	1	USRTblock	1	USRT	8	600000	#ff0000	10pct	1	50pct	50pct	6000	30278	36296	30013	57	36563	267	0	0	6
6.1.1	win	2020-04-03	19:02:09	1	1	1	USRTblock	1	USRT	9	600000	#ff0000	10pct	1	50pct	50pct	2000	36567	38578	36296	57	38924	346	0	0	7
6.1.1	win	2020-04-03	19:02:09	1	1	1	USRTblock	1	USRT	10	600000	#ff0000	10pct	1	50pct	50pct	5000	38929	43944	38578	57	44299	355	0	0	8
6.1.1	win	2020-04-03	19:02:09	1	1	1	USRTblock	1	USRT	11	600000	#ff0000	10pct	1	50pct	50pct	3000	44302	47310	43944	57	47642	332	0	0	9
6.1.1	win	2020-04-03	19:02:09	1	1	1	USRTblock	1	USRT	12	600000	#ff0000	10pct	1	50pct	50pct	5000	47645	52660	47310	57	52934	274	0	0	10
6.1.1	win	2020-04-03	19:02:09	1	1	1	USRTblock	1	USRT	13	600000	#ff0000	10pct	1	50pct	50pct	2000	52937	54943	52660	57	55283	340	0	0	11
6.1.1	win	2020-04-03	19:02:09	1	1	1	USRTblock	1	USRT	14	600000	#ff0000	10pct	1	50pct	50pct	2000	55287	57293	54943	57	57580	287	0	0	12
6.1.1	win	2020-04-03	19:02:09	1	1	1	USRTblock	1	USRT	15	600000	#ff0000	10pct	1	50pct	50pct	5000	57584	62593	57293	57	62875	282	0	0	13
6.1.1	win	2020-04-03	19:02:09	1	1	1	USRTblock	1	USRT	16	600000	#ff0000	10pct	1	50pct	50pct	8000	62879	70892	62593	57	71152	260	0	0	14
6.1.1	win	2020-04-03	19:02:09	1	1	1	USRTblock	1	USRT	17	600000	#ff0000	10pct	1	50pct	50pct	2000	71156	73175	70892	57	73487	312	0	0	15
6.1.1	win	2020-04-03	19:02:09	1	1	1	USRTblock	1	USRT	18	600000	#ff0000	10pct	1	50pct	50pct	2000	73491	75508	73175	57	75767	259	0	0	16
6.1.1	win	2020-04-03	19:02:09	1	1	1	USRTblock	1	USRT	19	600000	#ff0000	10pct	1	50pct	50pct	7000	75771	82791	75508	57	83050	259	0	0	17
6.1.1	win	2020-04-03	19:02:09	1	1	1	USRTblock	1	USRT	20	600000	#ff0000	10pct	1	50pct	50pct	3000	83053	86073	82791	57	86348	275	0	0	18
6.1.1	win	2020-04-03	19:02:09	1	1	1	USRTblock	1	USRT	21	600000	#ff0000	10pct	1	50pct	50pct	4000	86352	90373	86073	57	90629	256	0	0	19
6.1.1	win	2020-04-03	19:02:09	1	1	1	USRTblock	1	USRT	22	600000	#ff0000	10pct	1	50pct	50pct	8000	90634	-1	90373	57	94174	0	1	1	20
6.1.1	win	2020-04-03	19:02:09	1	1	1	USRTblock	1	USRT	23	600000	#ff0000	10pct	1	50pct	50pct	6000	94177	100189	-1	57	100479	290	0	1	21
6.1.1	win	2020-04-03	19:02:09	1	1	1	USRTblock	1	USRT	24	600000	#ff0000	10pct	1	50pct	50pct	8000	100482	108488	100189	57	108789	301	0	1	22
6.1.1	win	2020-04-03	19:02:09	1	1	1	USRTblock	1	USRT	25	600000	#ff0000	10pct	1	50pct	50pct	3000	108792	111804	108488	57	112139	335	0	1	23
6.1.1	win	2020-04-03	19:02:09	1	1	1	USRTblock	1	USRT	26	600000	#ff0000	10pct	1	50pct	50pct	7000	112143	119154	111804	57	119505	351	0	1	24
6.1.1	win	2020-04-03	19:02:09	1	1	1	USRTblock	1	USRT	27	600000	#ff0000	10pct	1	50pct	50pct	8000	119508	127520	119154	57	127840	320	0	1	25
6.1.1	win	2020-04-03	19:02:09	1	1	1	USRTblock	1	USRT	28	600000	#ff0000	10pct	1	50pct	50pct	7000	127844	134852	127520	57	135267	415	0	1	26
6.1.1	win	2020-04-03	19:02:09	1	1	1	USRTblock	1	USRT	29	600000	#ff0000	10pct	1	50pct	50pct	5000	135271	140285	134852	57	140673	388	0	1	27
6.1.1	win	2020-04-03	19:02:09	1	1	1	USRTblock	1	USRT	30	600000	#ff0000	10pct	1	50pct	50pct	5000	140676	145684	140285	57	146109	425	0	1	28
6.1.1	win	2020-04-03	19:02:09	1	1	1	USRTblock	1	USRT	31	600000	#ff0000	10pct	1	50pct	50pct	6000	146113	152134	145684	57	152476	342	0	1	29
6.1.1	win	2020-04-03	19:02:09	1	1	1	USRTblock	1	USRT	32	600000	#ff0000	10pct	1	50pct	50pct	3000	152480	155500	152134	57	155786	286	0	1	30
6.1.1	win	2020-04-03	19:02:09	1	1	1	USRTblock	1	USRT	33	600000	#ff0000	10pct	1	50pct	50pct	7000	155790	162800	155500	57	163084	284	0	1	31
6.1.1	win	2020-04-03	19:02:09	1	1	1	USRTblock	1	USRT	34	600000	#ff0000	10pct	1	50pct	50pct	6000	163087	169099	162800	57	169392	293	0	1	32
6.1.1	win	2020-04-03	19:02:09	1	1	1	USRTblock	1	USRT	35	600000	#ff0000	10pct	1	50pct	50pct	6000	169396	175414	169099	57	175713	299	0	1	33
6.1.1	win	2020-04-03	19:02:09	1	1	1	USRTblock	1	USRT	36	600000	#ff0000	10pct	1	50pct	50pct	7000	175716	182731	175414	57	183006	275	0	1	34
6.1.1	win	2020-04-03	19:02:09	1	1	1	USRTblock	1	USRT	37	600000	#ff0000	10pct	1	50pct	50pct	6000	183009	189030	182731	57	189315	285	0	1	35
6.1.1	win	2020-04-03	19:02:09	1	1	1	USRTblock	1	USRT	38	600000	#ff0000	10pct	1	50pct	50pct	8000	189318	197330	189030	57	197625	295	0	1	36
6.1.1	win	2020-04-03	19:02:09	1	1	1	USRTblock	1	USRT	39	600000	#ff0000	10pct	1	50pct	50pct	8000	197630	205646	197330	57	205919	273	0	1	37
6.1.1	win	2020-04-03	19:02:09	1	1	1	USRTblock	1	USRT	40	600000	#ff0000	10pct	1	50pct	50pct	7000	205922	212928	205646	57	213250	322	0	1	38
6.1.1	win	2020-04-03	19:02:09	1	1	1	USRTblock	1	USRT	41	600000	#ff0000	10pct	1	50pct	50pct	4000	213254	217260	212928	57	217519	259	0	1	39
6.1.1	win	2020-04-03	19:02:09	1	1	1	USRTblock	1	USRT	42	600000	#ff0000	10pct	1	50pct	50pct	7000	217523	224543	217260	57	224854	311	0	1	40
6.1.1	win	2020-04-03	19:02:09	1	1	1	USRTblock	1	USRT	43	600000	#ff0000	10pct	1	50pct	50pct	4000	224857	228876	224543	57	229140	264	0	1	41
6.1.1	win	2020-04-03	19:02:09	1	1	1	USRTblock	1	USRT	44	600000	#ff0000	10pct	1	50pct	50pct	3000	229144	232159	228876	57	232423	264	0	1	42
6.1.1	win	2020-04-03	19:02:09	1	1	1	USRTblock	1	USRT	45	600000	#ff0000	10pct	1	50pct	50pct	5000	232427	237441	232159	57	237740	299	0	1	43
6.1.1	win	2020-04-03	19:02:09	1	1	1	USRTblock	1	USRT	46	600000	#ff0000	10pct	1	50pct	50pct	2000	237744	239758	237441	57	240050	292	0	1	44
6.1.1	win	2020-04-03	19:02:09	1	1	1	USRTblock	1	USRT	47	600000	#ff0000	10pct	1	50pct	50pct	5000	240054	245074	239758	57	245433	359	0	1	45
6.1.1	win	2020-04-03	19:02:09	1	1	1	USRTblock	1	USRT	48	600000	#ff0000	10pct	1	50pct	50pct	7000	245438	252457	245074	57	252735	278	0	1	46
6.1.1	win	2020-04-03	19:02:09	1	1	1	USRTblock	1	USRT	49	600000	#ff0000	10pct	1	50pct	50pct	8000	252739	260756	252457	57	261011	255	0	1	47
6.1.1	win	2020-04-03	19:02:09	1	1	1	USRTblock	1	USRT	50	600000	#ff0000	10pct	1	50pct	50pct	2000	261016	263039	260756	57	263376	337	0	1	48
6.1.1	win	2020-04-03	19:02:09	1	1	1	USRTblock	1	USRT	51	600000	#ff0000	10pct	1	50pct	50pct	2000	263379	265390	263039	57	265680	290	0	1	49
6.1.1	win	2020-04-03	19:02:09	1	1	1	USRTblock	1	USRT	52	600000	#ff0000	10pct	1	50pct	50pct	4000	265684	269688	265390	57	269958	270	0	1	50
6.1.1	win	2020-04-03	19:02:09	1	1	1	USRTblock	1	USRT	53	600000	#ff0000	10pct	1	50pct	50pct	4000	269962	273971	269688	57	274278	307	0	1	51
6.1.1	win	2020-04-03	19:02:09	1	1	1	USRTblock	1	USRT	54	600000	#ff0000	10pct	1	50pct	50pct	6000	274282	280288	273971	57	280590	302	0	1	52
6.1.1	win	2020-04-03	19:02:09	1	1	1	USRTblock	1	USRT	55	600000	#ff0000	10pct	1	50pct	50pct	5000	280594	285603	280288	57	285894	291	0	1	53
6.1.1	win	2020-04-03	19:02:09	1	1	1	USRTblock	1	USRT	56	600000	#ff0000	10pct	1	50pct	50pct	6000	285897	291903	285603	57	292210	307	0	1	54
6.1.1	win	2020-04-03	19:02:09	1	1	1	USRTblock	1	USRT	57	600000	#ff0000	10pct	1	50pct	50pct	7000	292213	299219	291903	57	299578	359	0	1	55
6.1.1	win	2020-04-03	19:02:09	1	1	1	USRTblock	1	USRT	58	600000	#ff0000	10pct	1	50pct	50pct	5000	299582	304602	299219	57	304951	349	0	1	56
6.1.1	win	2020-04-03	19:02:09	1	1	1	USRTblock	1	USRT	59	600000	#ff0000	10pct	1	50pct	50pct	6000	304954	310968	304602	57	311253	285	0	1	57
6.1.1	win	2020-04-03	19:02:09	1	1	1	USRTblock	1	USRT	60	600000	#ff0000	10pct	1	50pct	50pct	7000	311256	318268	310968	57	318522	254	0	1	58
6.1.1	win	2020-04-03	19:02:09	1	1	1	USRTblock	1	USRT	61	600000	#ff0000	10pct	1	50pct	50pct	2000	318526	320533	318268	57	320866	333	0	1	59
6.1.1	win	2020-04-03	19:02:09	1	1	1	USRTblock	1	USRT	62	600000	#ff0000	10pct	1	50pct	50pct	3000	320870	323883	320533	57	324130	247	0	1	60
6.1.1	win	2020-04-03	19:02:09	1	1	1	USRTblock	1	USRT	63	600000	#ff0000	10pct	1	50pct	50pct	3000	324134	327149	323883	57	327401	252	0	1	61
6.1.1	win	2020-04-03	19:02:09	1	1	1	USRTblock	1	USRT	64	600000	#ff0000	10pct	1	50pct	50pct	8000	327404	335416	327149	57	335687	271	0	1	62
6.1.1	win	2020-04-03	19:02:09	1	1	1	USRTblock	1	USRT	65	600000	#ff0000	10pct	1	50pct	50pct	4000	335691	339698	335416	57	340020	322	0	1	63
6.1.1	win	2020-04-03	19:02:09	1	1	1	USRTblock	1	USRT	66	600000	#ff0000	10pct	1	50pct	50pct	4000	340024	344031	339698	57	344299	268	0	1	64
6.1.1	win	2020-04-03	19:02:09	1	1	1	USRTblock	1	USRT	67	600000	#ff0000	10pct	1	50pct	50pct	3000	344302	347313	344031	57	347706	393	0	1	65
6.1.1	win	2020-04-03	19:02:09	1	1	1	USRTblock	1	USRT	68	600000	#ff0000	10pct	1	50pct	50pct	8000	347709	355730	347313	57	355978	248	0	1	66
6.1.1	win	2020-04-03	19:02:09	1	1	1	USRTblock	1	USRT	69	600000	#ff0000	10pct	1	50pct	50pct	7000	355981	362996	355730	57	363407	411	0	1	67
6.1.1	win	2020-04-03	19:02:09	1	1	1	USRTblock	1	USRT	70	600000	#ff0000	10pct	1	50pct	50pct	4000	363410	367428	362996	57	367754	326	0	1	68
6.1.1	win	2020-04-03	19:02:09	1	1	1	USRTblock	1	USRT	71	600000	#ff0000	10pct	1	50pct	50pct	4000	367757	371761	367428	57	372107	346	0	1	69
6.1.1	win	2020-04-03	19:02:09	1	1	1	USRTblock	1	USRT	72	600000	#ff0000	10pct	1	50pct	50pct	3000	372112	375128	371761	57	375444	316	0	1	70
6.1.1	win	2020-04-03	19:02:09	1	1	1	USRTblock	1	USRT	73	600000	#ff0000	10pct	1	50pct	50pct	7000	375448	382461	375128	57	382705	244	0	1	71
6.1.1	win	2020-04-03	19:02:09	1	1	1	USRTblock	1	USRT	74	600000	#ff0000	10pct	1	50pct	50pct	2000	382708	384727	382461	57	385262	535	0	1	72
6.1.1	win	2020-04-03	19:02:09	1	1	1	USRTblock	1	USRT	75	600000	#ff0000	10pct	1	50pct	50pct	4000	385266	389276	384727	57	389613	337	0	1	73
6.1.1	win	2020-04-03	19:02:09	1	1	1	USRTblock	1	USRT	76	600000	#ff0000	10pct	1	50pct	50pct	7000	389618	396626	389276	57	396959	333	0	1	74
6.1.1	win	2020-04-03	19:02:09	1	1	1	USRTblock	1	USRT	77	600000	#ff0000	10pct	1	50pct	50pct	3000	396964	399975	396626	57	400280	305	0	1	75
6.1.1	win	2020-04-03	19:02:09	1	1	1	USRTblock	1	USRT	78	600000	#ff0000	10pct	1	50pct	50pct	5000	400284	405291	399975	57	405598	307	0	1	76
6.1.1	win	2020-04-03	19:02:09	1	1	1	USRTblock	1	USRT	79	600000	#ff0000	10pct	1	50pct	50pct	3000	405602	408608	405291	57	409007	399	0	1	77
6.1.1	win	2020-04-03	19:02:09	1	1	1	USRTblock	1	USRT	80	600000	#ff0000	10pct	1	50pct	50pct	5000	409011	414024	408608	57	414394	370	0	1	78
6.1.1	win	2020-04-03	19:02:09	1	1	1	USRTblock	1	USRT	81	600000	#ff0000	10pct	1	50pct	50pct	6000	414397	420407	414024	57	420688	281	0	1	79
6.1.1	win	2020-04-03	19:02:09	1	1	1	USRTblock	1	USRT	82	600000	#ff0000	10pct	1	50pct	50pct	7000	420691	427706	420407	57	427990	284	0	1	80
6.1.1	win	2020-04-03	19:02:09	1	1	1	USRTblock	1	USRT	83	600000	#ff0000	10pct	1	50pct	50pct	6000	427993	434006	427706	57	434268	262	0	1	81
6.1.1	win	2020-04-03	19:02:09	1	1	1	USRTblock	1	USRT	84	600000	#ff0000	10pct	1	50pct	50pct	7000	434272	441288	434006	57	441546	258	0	1	82
6.1.1	win	2020-04-03	19:02:09	1	1	1	USRTblock	1	USRT	85	600000	#ff0000	10pct	1	50pct	50pct	6000	441549	447554	441288	57	447825	271	0	1	83
6.1.1	win	2020-04-03	19:02:09	1	1	1	USRTblock	1	USRT	86	600000	#ff0000	10pct	1	50pct	50pct	6000	447828	453838	447554	57	454111	273	0	1	84
6.1.1	win	2020-04-03	19:02:09	1	1	1	USRTblock	1	USRT	87	600000	#ff0000	10pct	1	50pct	50pct	5000	454115	459120	453838	57	459391	271	0	1	85
6.1.1	win	2020-04-03	19:02:09	1	1	1	USRTblock	1	USRT	88	600000	#ff0000	10pct	1	50pct	50pct	7000	459395	466402	459120	57	466721	319	0	1	86
6.1.1	win	2020-04-03	19:02:09	1	1	1	USRTblock	1	USRT	89	600000	#ff0000	10pct	1	50pct	50pct	4000	466725	470735	466402	57	471263	528	0	1	87
6.1.1	win	2020-04-03	19:02:09	1	1	1	USRTblock	1	USRT	90	600000	#ff0000	10pct	1	50pct	50pct	8000	471266	479285	470735	57	479560	275	0	1	88
6.1.1	win	2020-04-03	19:02:09	1	1	1	USRTblock	1	USRT	91	600000	#ff0000	10pct	1	50pct	50pct	7000	479564	486584	479285	57	486855	271	0	1	89
6.1.1	win	2020-04-03	19:02:09	1	1	1	USRTblock	1	USRT	92	600000	#ff0000	10pct	1	50pct	50pct	5000	486858	491867	486584	57	492161	294	0	1	90
6.1.1	win	2020-04-03	19:02:09	1	1	1	USRTblock	1	USRT	93	600000	#ff0000	10pct	1	50pct	50pct	8000	492165	500183	491867	57	500512	329	0	1	91
6.1.1	win	2020-04-03	19:02:09	1	1	1	USRTblock	1	USRT	94	600000	#ff0000	10pct	1	50pct	50pct	2000	500516	502531	500183	57	502877	346	0	1	92
6.1.1	win	2020-04-03	19:02:09	1	1	1	USRTblock	1	USRT	95	600000	#ff0000	10pct	1	50pct	50pct	5000	502881	507898	502531	57	508222	324	0	1	93
6.1.1	win	2020-04-03	19:02:09	1	1	1	USRTblock	1	USRT	96	600000	#ff0000	10pct	1	50pct	50pct	5000	508226	513231	507898	57	513487	256	0	1	94
6.1.1	win	2020-04-03	19:02:09	1	1	1	USRTblock	1	USRT	97	600000	#ff0000	10pct	1	50pct	50pct	7000	513491	520497	513231	57	520690	193	0	1	95
6.1.1	win	2020-04-03	19:02:09	1	1	1	USRTblock	1	USRT	98	600000	#ff0000	10pct	1	50pct	50pct	2000	520694	522713	520497	57	522991	278	0	1	96
6.1.1	win	2020-04-03	19:02:09	1	1	1	USRTblock	1	USRT	99	600000	#ff0000	10pct	1	50pct	50pct	6000	522995	529012	522713	57	529281	269	0	1	97
6.1.1	win	2020-04-03	19:02:09	1	1	1	USRTblock	1	USRT	100	600000	#ff0000	10pct	1	50pct	50pct	3000	529284	532296	529012	57	532614	318	0	1	98
6.1.1	win	2020-04-03	19:02:09	1	1	1	USRTblock	1	USRT	101	600000	#ff0000	10pct	1	50pct	50pct	4000	532618	536628	532296	57	536897	269	0	1	99
6.1.1	win	2020-04-03	19:02:09	1	1	1	USRTblock	1	USRT	102	600000	#ff0000	10pct	1	50pct	50pct	3000	536901	539911	536628	57	540196	285	0	1	100
6.1.1	win	2020-04-03	19:02:09	1	1	1	USRTblock	1	USRT	103	600000	#ff0000	10pct	1	50pct	50pct	5000	540200	545211	539911	57	545472	261	0	1	101
6.1.1	win	2020-04-03	19:02:09	1	1	1	USRTblock	1	USRT	104	600000	#ff0000	10pct	1	50pct	50pct	8000	545476	553494	545211	57	553745	251	0	1	102
6.1.1	win	2020-04-03	19:02:09	1	1	1	USRTblock	1	USRT	105	600000	#ff0000	10pct	1	50pct	50pct	3000	553749	556760	553494	57	557093	333	0	1	103
6.1.1	win	2020-04-03	19:02:09	1	1	1	USRTblock	1	USRT	106	600000	#ff0000	10pct	1	50pct	50pct	4000	557098	561109	556760	57	561391	282	0	1	104
6.1.1	win	2020-04-03	19:02:09	1	1	1	USRTblock	1	USRT	107	600000	#ff0000	10pct	1	50pct	50pct	2000	561395	563409	561109	57	563734	325	0	1	105
6.1.1	win	2020-04-03	19:02:09	1	1	1	USRTblock	1	USRT	108	600000	#ff0000	10pct	1	50pct	50pct	8000	563737	571759	563409	57	572046	287	0	1	106
6.1.1	win	2020-04-03	19:02:09	1	1	1	USRTblock	1	USRT	109	600000	#ff0000	10pct	1	50pct	50pct	2000	572050	574058	571759	57	574591	533	0	1	107
6.1.1	win	2020-04-03	19:02:09	1	1	1	USRTblock	1	USRT	110	600000	#ff0000	10pct	1	50pct	50pct	3000	574595	577607	574058	57	577957	350	0	1	108
6.1.1	win	2020-04-03	19:02:09	1	1	1	USRTblock	1	USRT	111	600000	#ff0000	10pct	1	50pct	50pct	8000	577960	585974	577607	57	586329	355	0	1	109
6.1.1	win	2020-04-03	19:02:09	1	1	1	USRTblock	1	USRT	112	600000	#ff0000	10pct	1	50pct	50pct	6000	586333	592339	585974	57	592753	414	0	1	110
6.1.1	win	2020-04-03	19:02:09	1	1	1	USRTblock	1	USRT	113	600000	#ff0000	10pct	1	50pct	50pct	3000	592757	595772	592339	57	596135	363	0	1	111
6.1.1	win	2020-04-03	19:02:09	1	1	1	USRTblock	1	USRT	114	600000	#ff0000	10pct	1	50pct	50pct	5000	596139	-1	595772	0	596197	0	1	2	112
