build	computer.platform	date	time	subject	group	sessionid	blockcode	blocknum	trialcode	trialnum	testduration	targetcolor	targetsize	fixed	targetx	targety	stiminterval	trialStart	shape.targetcircle.timestamp	lastCircleTimestamp	response	rt_elapsed	rt	EarlyResponse	countEarlyResponses	countResponses
6.1.1	win	2020-04-21	22:30:23	1	1	1	USRTblock	1	USRT	3	600000	#ff0000	10pct	1	50pct	50pct	2000	2451	4467	1748	57	4726	259	0	0	1
6.1.1	win	2020-04-21	22:30:23	1	1	1	USRTblock	1	USRT	4	600000	#ff0000	10pct	1	50pct	50pct	3000	4737	7750	4467	57	8005	255	0	0	2
6.1.1	win	2020-04-21	22:30:23	1	1	1	USRTblock	1	USRT	5	600000	#ff0000	10pct	1	50pct	50pct	2000	8008	10017	7750	57	10265	248	0	0	3
6.1.1	win	2020-04-21	22:30:23	1	1	1	USRTblock	1	USRT	6	600000	#ff0000	10pct	1	50pct	50pct	4000	10268	14283	10017	57	14524	241	0	0	4
6.1.1	win	2020-04-21	22:30:23	1	1	1	USRTblock	1	USRT	7	600000	#ff0000	10pct	1	50pct	50pct	6000	14528	20533	14283	57	20788	255	0	0	5
6.1.1	win	2020-04-21	22:30:23	1	1	1	USRTblock	1	USRT	8	600000	#ff0000	10pct	1	50pct	50pct	5000	20791	25799	20533	57	26118	319	0	0	6
6.1.1	win	2020-04-21	22:30:23	1	1	1	USRTblock	1	USRT	9	600000	#ff0000	10pct	1	50pct	50pct	6000	26122	32132	25799	57	32424	292	0	0	7
6.1.1	win	2020-04-21	22:30:23	1	1	1	USRTblock	1	USRT	10	600000	#ff0000	10pct	1	50pct	50pct	2000	32428	34448	32132	57	34911	463	0	0	8
6.1.1	win	2020-04-21	22:30:23	1	1	1	USRTblock	1	USRT	11	600000	#ff0000	10pct	1	50pct	50pct	2000	34915	36931	34448	57	37255	324	0	0	9
6.1.1	win	2020-04-21	22:30:23	1	1	1	USRTblock	1	USRT	12	600000	#ff0000	10pct	1	50pct	50pct	3000	37260	40281	36931	57	40633	352	0	0	10
6.1.1	win	2020-04-21	22:30:23	1	1	1	USRTblock	1	USRT	13	600000	#ff0000	10pct	1	50pct	50pct	3000	40636	43647	40281	57	44024	377	0	0	11
6.1.1	win	2020-04-21	22:30:23	1	1	1	USRTblock	1	USRT	14	600000	#ff0000	10pct	1	50pct	50pct	2000	44027	46046	43647	57	46451	405	0	0	12
6.1.1	win	2020-04-21	22:30:23	1	1	1	USRTblock	1	USRT	15	600000	#ff0000	10pct	1	50pct	50pct	2000	46454	48464	46046	57	49000	536	0	0	13
6.1.1	win	2020-04-21	22:30:23	1	1	1	USRTblock	1	USRT	16	600000	#ff0000	10pct	1	50pct	50pct	7000	49005	56013	48464	57	56359	346	0	0	14
6.1.1	win	2020-04-21	22:30:23	1	1	1	USRTblock	1	USRT	17	600000	#ff0000	10pct	1	50pct	50pct	6000	56362	62379	56013	57	62725	346	0	0	15
6.1.1	win	2020-04-21	22:30:23	1	1	1	USRTblock	1	USRT	18	600000	#ff0000	10pct	1	50pct	50pct	4000	62729	66745	62379	57	67093	348	0	0	16
6.1.1	win	2020-04-21	22:30:23	1	1	1	USRTblock	1	USRT	19	600000	#ff0000	10pct	1	50pct	50pct	3000	67096	70111	66745	57	70657	546	0	0	17
6.1.1	win	2020-04-21	22:30:23	1	1	1	USRTblock	1	USRT	20	600000	#ff0000	10pct	1	50pct	50pct	5000	70660	75677	70111	57	76110	433	0	0	18
6.1.1	win	2020-04-21	22:30:23	1	1	1	USRTblock	1	USRT	21	600000	#ff0000	10pct	1	50pct	50pct	6000	76113	82127	75677	57	82417	290	0	0	19
6.1.1	win	2020-04-21	22:30:23	1	1	1	USRTblock	1	USRT	22	600000	#ff0000	10pct	1	50pct	50pct	3000	82420	85426	82127	57	85798	372	0	0	20
6.1.1	win	2020-04-21	22:30:23	1	1	1	USRTblock	1	USRT	23	600000	#ff0000	10pct	1	50pct	50pct	3000	85802	88809	85426	57	89268	459	0	0	21
6.1.1	win	2020-04-21	22:30:23	1	1	1	USRTblock	1	USRT	24	600000	#ff0000	10pct	1	50pct	50pct	8000	89272	97292	88809	57	97547	255	0	0	22
6.1.1	win	2020-04-21	22:30:23	1	1	1	USRTblock	1	USRT	25	600000	#ff0000	10pct	1	50pct	50pct	5000	97551	102558	97292	57	102846	288	0	0	23
6.1.1	win	2020-04-21	22:30:23	1	1	1	USRTblock	1	USRT	26	600000	#ff0000	10pct	1	50pct	50pct	6000	102850	108857	102558	57	109155	298	0	0	24
6.1.1	win	2020-04-21	22:30:23	1	1	1	USRTblock	1	USRT	27	600000	#ff0000	10pct	1	50pct	50pct	3000	109159	112174	108857	57	112579	405	0	0	25
6.1.1	win	2020-04-21	22:30:23	1	1	1	USRTblock	1	USRT	28	600000	#ff0000	10pct	1	50pct	50pct	6000	112583	118590	112174	57	118886	296	0	0	26
6.1.1	win	2020-04-21	22:30:23	1	1	1	USRTblock	1	USRT	29	600000	#ff0000	10pct	1	50pct	50pct	6000	118890	124906	118590	57	125218	312	0	0	27
6.1.1	win	2020-04-21	22:30:23	1	1	1	USRTblock	1	USRT	30	600000	#ff0000	10pct	1	50pct	50pct	3000	125221	128238	124906	57	128595	357	0	0	28
6.1.1	win	2020-04-21	22:30:23	1	1	1	USRTblock	1	USRT	31	600000	#ff0000	10pct	1	50pct	50pct	7000	128598	135605	128238	57	135990	385	0	0	29
6.1.1	win	2020-04-21	22:30:23	1	1	1	USRTblock	1	USRT	32	600000	#ff0000	10pct	1	50pct	50pct	5000	135993	141004	135605	57	141299	295	0	0	30
6.1.1	win	2020-04-21	22:30:23	1	1	1	USRTblock	1	USRT	33	600000	#ff0000	10pct	1	50pct	50pct	5000	141303	146321	141004	57	146607	286	0	0	31
6.1.1	win	2020-04-21	22:30:23	1	1	1	USRTblock	1	USRT	34	600000	#ff0000	10pct	1	50pct	50pct	2000	146610	148620	146321	57	148943	323	0	0	32
6.1.1	win	2020-04-21	22:30:23	1	1	1	USRTblock	1	USRT	35	600000	#ff0000	10pct	1	50pct	50pct	7000	148947	155952	148620	57	156230	278	0	0	33
6.1.1	win	2020-04-21	22:30:23	1	1	1	USRTblock	1	USRT	36	600000	#ff0000	10pct	1	50pct	50pct	5000	156235	161252	155952	57	161529	277	0	0	34
6.1.1	win	2020-04-21	22:30:23	1	1	1	USRTblock	1	USRT	37	600000	#ff0000	10pct	1	50pct	50pct	2000	161533	163551	161252	57	164186	635	0	0	35
6.1.1	win	2020-04-21	22:30:23	1	1	1	USRTblock	1	USRT	38	600000	#ff0000	10pct	1	50pct	50pct	5000	164189	169201	163551	57	169477	276	0	0	36
6.1.1	win	2020-04-21	22:30:23	1	1	1	USRTblock	1	USRT	39	600000	#ff0000	10pct	1	50pct	50pct	4000	169480	173501	169201	57	173786	285	0	0	37
6.1.1	win	2020-04-21	22:30:23	1	1	1	USRTblock	1	USRT	40	600000	#ff0000	10pct	1	50pct	50pct	3000	173790	176800	173501	57	177104	304	0	0	38
6.1.1	win	2020-04-21	22:30:23	1	1	1	USRTblock	1	USRT	41	600000	#ff0000	10pct	1	50pct	50pct	8000	177107	-1	176800	57	180500	0	1	1	39
6.1.1	win	2020-04-21	22:30:23	1	1	1	USRTblock	1	USRT	42	600000	#ff0000	10pct	1	50pct	50pct	2000	180504	182517	-1	57	182865	348	0	1	40
6.1.1	win	2020-04-21	22:30:23	1	1	1	USRTblock	1	USRT	43	600000	#ff0000	10pct	1	50pct	50pct	6000	182869	188883	182517	57	189234	351	0	1	41
6.1.1	win	2020-04-21	22:30:23	1	1	1	USRTblock	1	USRT	44	600000	#ff0000	10pct	1	50pct	50pct	3000	189238	192249	188883	57	192584	335	0	1	42
6.1.1	win	2020-04-21	22:30:23	1	1	1	USRTblock	1	USRT	45	600000	#ff0000	10pct	1	50pct	50pct	5000	192588	197599	192249	57	197895	296	0	1	43
6.1.1	win	2020-04-21	22:30:23	1	1	1	USRTblock	1	USRT	46	600000	#ff0000	10pct	1	50pct	50pct	3000	197899	200914	197599	57	201310	396	0	1	44
6.1.1	win	2020-04-21	22:30:23	1	1	1	USRTblock	1	USRT	47	600000	#ff0000	10pct	1	50pct	50pct	2000	201313	203331	200914	57	203617	286	0	1	45
6.1.1	win	2020-04-21	22:30:23	1	1	1	USRTblock	1	USRT	48	600000	#ff0000	10pct	1	50pct	50pct	4000	203621	207631	203331	57	207902	271	0	1	46
6.1.1	win	2020-04-21	22:30:23	1	1	1	USRTblock	1	USRT	49	600000	#ff0000	10pct	1	50pct	50pct	3000	207906	210914	207631	57	211216	302	0	1	47
6.1.1	win	2020-04-21	22:30:23	1	1	1	USRTblock	1	USRT	50	600000	#ff0000	10pct	1	50pct	50pct	7000	211220	218230	210914	57	218513	283	0	1	48
6.1.1	win	2020-04-21	22:30:23	1	1	1	USRTblock	1	USRT	51	600000	#ff0000	10pct	1	50pct	50pct	7000	218516	225529	218230	57	225836	307	0	1	49
6.1.1	win	2020-04-21	22:30:23	1	1	1	USRTblock	1	USRT	52	600000	#ff0000	10pct	1	50pct	50pct	5000	225840	230845	225529	57	231102	257	0	1	50
6.1.1	win	2020-04-21	22:30:23	1	1	1	USRTblock	1	USRT	53	600000	#ff0000	10pct	1	50pct	50pct	3000	231106	234111	230845	57	234493	382	0	1	51
6.1.1	win	2020-04-21	22:30:23	1	1	1	USRTblock	1	USRT	54	600000	#ff0000	10pct	1	50pct	50pct	7000	234497	241511	234111	57	241821	310	0	1	52
6.1.1	win	2020-04-21	22:30:23	1	1	1	USRTblock	1	USRT	55	600000	#ff0000	10pct	1	50pct	50pct	4000	241824	245843	241511	57	246148	305	0	1	53
6.1.1	win	2020-04-21	22:30:23	1	1	1	USRTblock	1	USRT	56	600000	#ff0000	10pct	1	50pct	50pct	2000	246151	248160	245843	57	248493	333	0	1	54
6.1.1	win	2020-04-21	22:30:23	1	1	1	USRTblock	1	USRT	57	600000	#ff0000	10pct	1	50pct	50pct	8000	248497	256510	248160	57	256815	305	0	1	55
6.1.1	win	2020-04-21	22:30:23	1	1	1	USRTblock	1	USRT	58	600000	#ff0000	10pct	1	50pct	50pct	6000	256818	262825	256510	57	263149	324	0	1	56
6.1.1	win	2020-04-21	22:30:23	1	1	1	USRTblock	1	USRT	59	600000	#ff0000	10pct	1	50pct	50pct	3000	263153	266158	262825	57	266506	348	0	1	57
6.1.1	win	2020-04-21	22:30:23	1	1	1	USRTblock	1	USRT	60	600000	#ff0000	10pct	1	50pct	50pct	6000	266509	272525	266158	57	272790	265	0	1	58
6.1.1	win	2020-04-21	22:30:23	1	1	1	USRTblock	1	USRT	61	600000	#ff0000	10pct	1	50pct	50pct	5000	272793	277807	272525	57	278083	276	0	1	59
6.1.1	win	2020-04-21	22:30:23	1	1	1	USRTblock	1	USRT	62	600000	#ff0000	10pct	1	50pct	50pct	5000	278086	283107	277807	57	283387	280	0	1	60
6.1.1	win	2020-04-21	22:30:23	1	1	1	USRTblock	1	USRT	63	600000	#ff0000	10pct	1	50pct	50pct	5000	283390	288406	283107	57	288657	251	0	1	61
6.1.1	win	2020-04-21	22:30:23	1	1	1	USRTblock	1	USRT	64	600000	#ff0000	10pct	1	50pct	50pct	2000	288660	290672	288406	57	291023	351	0	1	62
6.1.1	win	2020-04-21	22:30:23	1	1	1	USRTblock	1	USRT	65	600000	#ff0000	10pct	1	50pct	50pct	2000	291026	293039	290672	57	293315	276	0	1	63
6.1.1	win	2020-04-21	22:30:23	1	1	1	USRTblock	1	USRT	66	600000	#ff0000	10pct	1	50pct	50pct	7000	293319	300338	293039	57	300593	255	0	1	64
6.1.1	win	2020-04-21	22:30:23	1	1	1	USRTblock	1	USRT	67	600000	#ff0000	10pct	1	50pct	50pct	5000	300596	305604	300338	57	305872	268	0	1	65
6.1.1	win	2020-04-21	22:30:23	1	1	1	USRTblock	1	USRT	68	600000	#ff0000	10pct	1	50pct	50pct	8000	305876	313887	305604	57	314178	291	0	1	66
6.1.1	win	2020-04-21	22:30:23	1	1	1	USRTblock	1	USRT	69	600000	#ff0000	10pct	1	50pct	50pct	8000	314181	322186	313887	57	322480	294	0	1	67
6.1.1	win	2020-04-21	22:30:23	1	1	1	USRTblock	1	USRT	70	600000	#ff0000	10pct	1	50pct	50pct	8000	322484	330502	322186	57	330816	314	0	1	68
6.1.1	win	2020-04-21	22:30:23	1	1	1	USRTblock	1	USRT	71	600000	#ff0000	10pct	1	50pct	50pct	4000	330819	334835	330502	57	335158	323	0	1	69
6.1.1	win	2020-04-21	22:30:23	1	1	1	USRTblock	1	USRT	72	600000	#ff0000	10pct	1	50pct	50pct	7000	335161	342168	334835	57	342472	304	0	1	70
6.1.1	win	2020-04-21	22:30:23	1	1	1	USRTblock	1	USRT	73	600000	#ff0000	10pct	1	50pct	50pct	8000	342476	350483	342168	57	350727	244	0	1	71
6.1.1	win	2020-04-21	22:30:23	1	1	1	USRTblock	1	USRT	74	600000	#ff0000	10pct	1	50pct	50pct	2000	350731	352749	350483	57	353060	311	0	1	72
6.1.1	win	2020-04-21	22:30:23	1	1	1	USRTblock	1	USRT	75	600000	#ff0000	10pct	1	50pct	50pct	6000	353064	359082	352749	57	359386	304	0	1	73
6.1.1	win	2020-04-21	22:30:23	1	1	1	USRTblock	1	USRT	76	600000	#ff0000	10pct	1	50pct	50pct	7000	359390	366398	359082	57	366751	353	0	1	74
6.1.1	win	2020-04-21	22:30:23	1	1	1	USRTblock	1	USRT	77	600000	#ff0000	10pct	1	50pct	50pct	5000	366754	371764	366398	57	372046	282	0	1	75
6.1.1	win	2020-04-21	22:30:23	1	1	1	USRTblock	1	USRT	78	600000	#ff0000	10pct	1	50pct	50pct	2000	372049	374064	371764	57	374456	392	0	1	76
6.1.1	win	2020-04-21	22:30:23	1	1	1	USRTblock	1	USRT	79	600000	#ff0000	10pct	1	50pct	50pct	2000	374459	376463	374064	57	376791	328	0	1	77
6.1.1	win	2020-04-21	22:30:23	1	1	1	USRTblock	1	USRT	80	600000	#ff0000	10pct	1	50pct	50pct	3000	376794	379814	376463	57	380091	277	0	1	78
6.1.1	win	2020-04-21	22:30:23	1	1	1	USRTblock	1	USRT	81	600000	#ff0000	10pct	1	50pct	50pct	4000	380094	384113	379814	57	384374	261	0	1	79
6.1.1	win	2020-04-21	22:30:23	1	1	1	USRTblock	1	USRT	82	600000	#ff0000	10pct	1	50pct	50pct	2000	384378	386396	384113	57	386852	456	0	1	80
6.1.1	win	2020-04-21	22:30:23	1	1	1	USRTblock	1	USRT	83	600000	#ff0000	10pct	1	50pct	50pct	2000	386856	388862	386396	57	389199	337	0	1	81
6.1.1	win	2020-04-21	22:30:23	1	1	1	USRTblock	1	USRT	84	600000	#ff0000	10pct	1	50pct	50pct	8000	389203	-1	388862	57	396287	0	1	2	82
6.1.1	win	2020-04-21	22:30:23	1	1	1	USRTblock	1	USRT	85	600000	#ff0000	10pct	1	50pct	50pct	3000	396290	399312	-1	57	399638	326	0	2	83
6.1.1	win	2020-04-21	22:30:23	1	1	1	USRTblock	1	USRT	86	600000	#ff0000	10pct	1	50pct	50pct	4000	399641	403661	399312	57	404034	373	0	2	84
6.1.1	win	2020-04-21	22:30:23	1	1	1	USRTblock	1	USRT	87	600000	#ff0000	10pct	1	50pct	50pct	4000	404039	408061	403661	57	408419	358	0	2	85
6.1.1	win	2020-04-21	22:30:23	1	1	1	USRTblock	1	USRT	88	600000	#ff0000	10pct	1	50pct	50pct	6000	408423	414444	408061	57	414744	300	0	2	86
6.1.1	win	2020-04-21	22:30:23	1	1	1	USRTblock	1	USRT	89	600000	#ff0000	10pct	1	50pct	50pct	8000	414747	422759	414444	57	423036	277	0	2	87
6.1.1	win	2020-04-21	22:30:23	1	1	1	USRTblock	1	USRT	90	600000	#ff0000	10pct	1	50pct	50pct	6000	423040	429059	422759	57	429369	310	0	2	88
6.1.1	win	2020-04-21	22:30:23	1	1	1	USRTblock	1	USRT	91	600000	#ff0000	10pct	1	50pct	50pct	7000	429372	436391	429059	57	436658	267	0	2	89
6.1.1	win	2020-04-21	22:30:23	1	1	1	USRTblock	1	USRT	92	600000	#ff0000	10pct	1	50pct	50pct	2000	436662	438674	436391	57	439137	463	0	2	90
6.1.1	win	2020-04-21	22:30:23	1	1	1	USRTblock	1	USRT	93	600000	#ff0000	10pct	1	50pct	50pct	3000	439141	442157	438674	57	442538	381	0	2	91
6.1.1	win	2020-04-21	22:30:23	1	1	1	USRTblock	1	USRT	94	600000	#ff0000	10pct	1	50pct	50pct	8000	442541	450557	442157	57	450806	249	0	2	92
6.1.1	win	2020-04-21	22:30:23	1	1	1	USRTblock	1	USRT	95	600000	#ff0000	10pct	1	50pct	50pct	5000	450810	455822	450557	57	456141	319	0	2	93
6.1.1	win	2020-04-21	22:30:23	1	1	1	USRTblock	1	USRT	96	600000	#ff0000	10pct	1	50pct	50pct	2000	456146	458155	455822	57	458521	366	0	2	94
6.1.1	win	2020-04-21	22:30:23	1	1	1	USRTblock	1	USRT	97	600000	#ff0000	10pct	1	50pct	50pct	3000	458524	461538	458155	57	461874	336	0	2	95
6.1.1	win	2020-04-21	22:30:23	1	1	1	USRTblock	1	USRT	98	600000	#ff0000	10pct	1	50pct	50pct	5000	461878	466888	461538	57	467259	371	0	2	96
6.1.1	win	2020-04-21	22:30:23	1	1	1	USRTblock	1	USRT	99	600000	#ff0000	10pct	1	50pct	50pct	8000	467262	475271	466888	57	475618	347	0	2	97
6.1.1	win	2020-04-21	22:30:23	1	1	1	USRTblock	1	USRT	100	600000	#ff0000	10pct	1	50pct	50pct	3000	475622	478636	475271	57	479008	372	0	2	98
6.1.1	win	2020-04-21	22:30:23	1	1	1	USRTblock	1	USRT	101	600000	#ff0000	10pct	1	50pct	50pct	7000	479013	486019	478636	57	486369	350	0	2	99
6.1.1	win	2020-04-21	22:30:23	1	1	1	USRTblock	1	USRT	102	600000	#ff0000	10pct	1	50pct	50pct	8000	486373	494386	486019	57	494691	305	0	2	100
6.1.1	win	2020-04-21	22:30:23	1	1	1	USRTblock	1	USRT	103	600000	#ff0000	10pct	1	50pct	50pct	6000	494695	500701	494386	57	501040	339	0	2	101
6.1.1	win	2020-04-21	22:30:23	1	1	1	USRTblock	1	USRT	104	600000	#ff0000	10pct	1	50pct	50pct	7000	501043	508050	500701	57	508346	296	0	2	102
6.1.1	win	2020-04-21	22:30:23	1	1	1	USRTblock	1	USRT	105	600000	#ff0000	10pct	1	50pct	50pct	7000	508349	515366	508050	57	515671	305	0	2	103
6.1.1	win	2020-04-21	22:30:23	1	1	1	USRTblock	1	USRT	106	600000	#ff0000	10pct	1	50pct	50pct	3000	515674	518683	515366	57	518986	303	0	2	104
6.1.1	win	2020-04-21	22:30:23	1	1	1	USRTblock	1	USRT	107	600000	#ff0000	10pct	1	50pct	50pct	3000	518990	521999	518683	57	522357	358	0	2	105
6.1.1	win	2020-04-21	22:30:23	1	1	1	USRTblock	1	USRT	108	600000	#ff0000	10pct	1	50pct	50pct	7000	522360	529365	521999	57	529714	349	0	2	106
6.1.1	win	2020-04-21	22:30:23	1	1	1	USRTblock	1	USRT	109	600000	#ff0000	10pct	1	50pct	50pct	8000	529717	537731	529365	57	538033	302	0	2	107
6.1.1	win	2020-04-21	22:30:23	1	1	1	USRTblock	1	USRT	110	600000	#ff0000	10pct	1	50pct	50pct	6000	538036	544047	537731	57	544387	340	0	2	108
6.1.1	win	2020-04-21	22:30:23	1	1	1	USRTblock	1	USRT	111	600000	#ff0000	10pct	1	50pct	50pct	7000	544390	551396	544047	57	551788	392	0	2	109
6.1.1	win	2020-04-21	22:30:23	1	1	1	USRTblock	1	USRT	112	600000	#ff0000	10pct	1	50pct	50pct	6000	551791	557812	551396	57	558202	390	0	2	110
6.1.1	win	2020-04-21	22:30:23	1	1	1	USRTblock	1	USRT	113	600000	#ff0000	10pct	1	50pct	50pct	2000	558205	560212	557812	57	560567	355	0	2	111
6.1.1	win	2020-04-21	22:30:23	1	1	1	USRTblock	1	USRT	114	600000	#ff0000	10pct	1	50pct	50pct	5000	560571	565578	560212	57	565885	307	0	2	112
6.1.1	win	2020-04-21	22:30:23	1	1	1	USRTblock	1	USRT	115	600000	#ff0000	10pct	1	50pct	50pct	3000	565889	568895	565578	57	569310	415	0	2	113
6.1.1	win	2020-04-21	22:30:23	1	1	1	USRTblock	1	USRT	116	600000	#ff0000	10pct	1	50pct	50pct	2000	569313	571327	568895	57	571871	544	0	2	114
6.1.1	win	2020-04-21	22:30:23	1	1	1	USRTblock	1	USRT	117	600000	#ff0000	10pct	1	50pct	50pct	6000	571875	577894	571327	57	578210	316	0	2	115
6.1.1	win	2020-04-21	22:30:23	1	1	1	USRTblock	1	USRT	118	600000	#ff0000	10pct	1	50pct	50pct	2000	578214	580227	577894	57	580590	363	0	2	116
6.1.1	win	2020-04-21	22:30:23	1	1	1	USRTblock	1	USRT	119	600000	#ff0000	10pct	1	50pct	50pct	5000	580594	585610	580227	57	585895	285	0	2	117
6.1.1	win	2020-04-21	22:30:23	1	1	1	USRTblock	1	USRT	120	600000	#ff0000	10pct	1	50pct	50pct	7000	585898	592909	585610	57	593210	301	0	2	118
6.1.1	win	2020-04-21	22:30:23	1	1	1	USRTblock	1	USRT	121	600000	#ff0000	10pct	1	50pct	50pct	4000	593216	597225	592909	57	597563	338	0	2	119
6.1.1	win	2020-04-21	22:30:23	1	1	1	USRTblock	1	USRT	122	600000	#ff0000	10pct	1	50pct	50pct	2000	597567	599574	597225	57	599907	333	0	2	120
6.1.1	win	2020-04-21	22:30:23	1	1	1	USRTblock	1	USRT	123	600000	#ff0000	10pct	1	50pct	50pct	2000	599912	-1	599574	0	600027	0	1	3	121
