build	computer.platform	date	time	subject	group	sessionid	blockcode	blocknum	trialcode	trialnum	testduration	targetcolor	targetsize	fixed	targetx	targety	stiminterval	trialStart	shape.targetcircle.timestamp	lastCircleTimestamp	response	rt_elapsed	rt	EarlyResponse	countEarlyResponses	countResponses
6.1.1	win	2020-04-22	13:50:09	1	1	1	USRTblock	1	USRT	3	600000	#ff0000	10pct	1	50pct	50pct	3000	2569	5579	1792	57	5842	263	0	0	1
6.1.1	win	2020-04-22	13:50:09	1	1	1	USRTblock	1	USRT	4	600000	#ff0000	10pct	1	50pct	50pct	3000	5854	8862	5579	57	9083	221	0	0	2
6.1.1	win	2020-04-22	13:50:09	1	1	1	USRTblock	1	USRT	5	600000	#ff0000	10pct	1	50pct	50pct	7000	9087	-1	8862	57	13553	0	1	1	3
6.1.1	win	2020-04-22	13:50:09	1	1	1	USRTblock	1	USRT	6	600000	#ff0000	10pct	1	50pct	50pct	8000	13558	21577	-1	57	21908	331	0	1	4
6.1.1	win	2020-04-22	13:50:09	1	1	1	USRTblock	1	USRT	7	600000	#ff0000	10pct	1	50pct	50pct	5000	21911	26927	21577	57	27234	307	0	1	5
6.1.1	win	2020-04-22	13:50:09	1	1	1	USRTblock	1	USRT	8	600000	#ff0000	10pct	1	50pct	50pct	7000	27237	34243	26927	57	34487	244	0	1	6
6.1.1	win	2020-04-22	13:50:09	1	1	1	USRTblock	1	USRT	9	600000	#ff0000	10pct	1	50pct	50pct	8000	34491	42509	34243	57	42783	274	0	1	7
6.1.1	win	2020-04-22	13:50:09	1	1	1	USRTblock	1	USRT	10	600000	#ff0000	10pct	1	50pct	50pct	5000	42786	47792	42509	57	48169	377	0	1	8
6.1.1	win	2020-04-22	13:50:09	1	1	1	USRTblock	1	USRT	11	600000	#ff0000	10pct	1	50pct	50pct	2000	48172	50191	47792	57	50532	341	0	1	9
6.1.1	win	2020-04-22	13:50:09	1	1	1	USRTblock	1	USRT	12	600000	#ff0000	10pct	1	50pct	50pct	2000	50536	52557	50191	57	52931	374	0	1	10
6.1.1	win	2020-04-22	13:50:09	1	1	1	USRTblock	1	USRT	13	600000	#ff0000	10pct	1	50pct	50pct	6000	52935	58957	52557	57	59317	360	0	1	11
6.1.1	win	2020-04-22	13:50:09	1	1	1	USRTblock	1	USRT	14	600000	#ff0000	10pct	1	50pct	50pct	2000	59320	61340	58957	57	61737	397	0	1	12
6.1.1	win	2020-04-22	13:50:09	1	1	1	USRTblock	1	USRT	15	600000	#ff0000	10pct	1	50pct	50pct	5000	61740	66756	61340	57	67152	396	0	1	13
6.1.1	win	2020-04-22	13:50:09	1	1	1	USRTblock	1	USRT	16	600000	#ff0000	10pct	1	50pct	50pct	5000	67155	72172	66756	57	72542	370	0	1	14
6.1.1	win	2020-04-22	13:50:09	1	1	1	USRTblock	1	USRT	17	600000	#ff0000	10pct	1	50pct	50pct	8000	72547	80555	72172	57	80882	327	0	1	15
6.1.1	win	2020-04-22	13:50:09	1	1	1	USRTblock	1	USRT	18	600000	#ff0000	10pct	1	50pct	50pct	4000	80886	84904	80555	57	85218	314	0	1	16
6.1.1	win	2020-04-22	13:50:09	1	1	1	USRTblock	1	USRT	19	600000	#ff0000	10pct	1	50pct	50pct	6000	85221	91238	84904	57	91501	263	0	1	17
6.1.1	win	2020-04-22	13:50:09	1	1	1	USRTblock	1	USRT	20	600000	#ff0000	10pct	1	50pct	50pct	4000	91505	95520	91238	57	95846	326	0	1	18
6.1.1	win	2020-04-22	13:50:09	1	1	1	USRTblock	1	USRT	21	600000	#ff0000	10pct	1	50pct	50pct	2000	95849	97870	95520	57	98230	360	0	1	19
6.1.1	win	2020-04-22	13:50:09	1	1	1	USRTblock	1	USRT	22	600000	#ff0000	10pct	1	50pct	50pct	4000	98234	102253	97870	57	102563	310	0	1	20
6.1.1	win	2020-04-22	13:50:09	1	1	1	USRTblock	1	USRT	23	600000	#ff0000	10pct	1	50pct	50pct	6000	102567	108585	102253	57	108866	281	0	1	21
6.1.1	win	2020-04-22	13:50:09	1	1	1	USRTblock	1	USRT	24	600000	#ff0000	10pct	1	50pct	50pct	7000	108870	115884	108585	57	116239	355	0	1	22
6.1.1	win	2020-04-22	13:50:09	1	1	1	USRTblock	1	USRT	25	600000	#ff0000	10pct	1	50pct	50pct	5000	116242	121251	115884	57	121592	341	0	1	23
6.1.1	win	2020-04-22	13:50:09	1	1	1	USRTblock	1	USRT	26	600000	#ff0000	10pct	1	50pct	50pct	8000	121596	129617	121251	57	129972	355	0	1	24
6.1.1	win	2020-04-22	13:50:09	1	1	1	USRTblock	1	USRT	27	600000	#ff0000	10pct	1	50pct	50pct	6000	129975	135984	129617	57	136376	392	0	1	25
6.1.1	win	2020-04-22	13:50:09	1	1	1	USRTblock	1	USRT	28	600000	#ff0000	10pct	1	50pct	50pct	5000	136379	141399	135984	57	141744	345	0	1	26
6.1.1	win	2020-04-22	13:50:09	1	1	1	USRTblock	1	USRT	29	600000	#ff0000	10pct	1	50pct	50pct	3000	141747	144765	141399	57	145164	399	0	1	27
6.1.1	win	2020-04-22	13:50:09	1	1	1	USRTblock	1	USRT	30	600000	#ff0000	10pct	1	50pct	50pct	7000	145167	152181	144765	57	152556	375	0	1	28
6.1.1	win	2020-04-22	13:50:09	1	1	1	USRTblock	1	USRT	31	600000	#ff0000	10pct	1	50pct	50pct	5000	152559	157581	152181	57	158055	474	0	1	29
6.1.1	win	2020-04-22	13:50:09	1	1	1	USRTblock	1	USRT	32	600000	#ff0000	10pct	1	50pct	50pct	7000	158058	165063	157581	57	165414	351	0	1	30
6.1.1	win	2020-04-22	13:50:09	1	1	1	USRTblock	1	USRT	33	600000	#ff0000	10pct	1	50pct	50pct	3000	165418	168429	165063	57	168851	422	0	1	31
6.1.1	win	2020-04-22	13:50:09	1	1	1	USRTblock	1	USRT	34	600000	#ff0000	10pct	1	50pct	50pct	3000	168855	171862	168429	57	172217	355	0	1	32
6.1.1	win	2020-04-22	13:50:09	1	1	1	USRTblock	1	USRT	35	600000	#ff0000	10pct	1	50pct	50pct	6000	172244	178261	171862	57	178593	332	0	1	33
6.1.1	win	2020-04-22	13:50:09	1	1	1	USRTblock	1	USRT	36	600000	#ff0000	10pct	1	50pct	50pct	7000	178596	185611	178261	57	186097	486	0	1	34
6.1.1	win	2020-04-22	13:50:09	1	1	1	USRTblock	1	USRT	37	600000	#ff0000	10pct	1	50pct	50pct	3000	186102	189110	185611	57	189608	498	0	1	35
6.1.1	win	2020-04-22	13:50:09	1	1	1	USRTblock	1	USRT	38	600000	#ff0000	10pct	1	50pct	50pct	6000	189611	195628	189110	57	195920	292	0	1	36
6.1.1	win	2020-04-22	13:50:09	1	1	1	USRTblock	1	USRT	39	600000	#ff0000	10pct	1	50pct	50pct	3000	195924	198943	195628	57	199325	382	0	1	37
6.1.1	win	2020-04-22	13:50:09	1	1	1	USRTblock	1	USRT	40	600000	#ff0000	10pct	1	50pct	50pct	8000	199328	207342	198943	57	207775	433	0	1	38
6.1.1	win	2020-04-22	13:50:09	1	1	1	USRTblock	1	USRT	41	600000	#ff0000	10pct	1	50pct	50pct	5000	207779	212791	207342	57	213140	349	0	1	39
6.1.1	win	2020-04-22	13:50:09	1	1	1	USRTblock	1	USRT	42	600000	#ff0000	10pct	1	50pct	50pct	4000	213144	217158	212791	57	217466	308	0	1	40
6.1.1	win	2020-04-22	13:50:09	1	1	1	USRTblock	1	USRT	43	600000	#ff0000	10pct	1	50pct	50pct	4000	217470	221490	217158	57	221794	304	0	1	41
6.1.1	win	2020-04-22	13:50:09	1	1	1	USRTblock	1	USRT	44	600000	#ff0000	10pct	1	50pct	50pct	6000	221798	227808	221490	57	228158	350	0	1	42
6.1.1	win	2020-04-22	13:50:09	1	1	1	USRTblock	1	USRT	45	600000	#ff0000	10pct	1	50pct	50pct	8000	228161	236173	227808	57	236435	262	0	1	43
6.1.1	win	2020-04-22	13:50:09	1	1	1	USRTblock	1	USRT	46	600000	#ff0000	10pct	1	50pct	50pct	4000	236439	240455	236173	57	240769	314	0	1	44
6.1.1	win	2020-04-22	13:50:09	1	1	1	USRTblock	1	USRT	47	600000	#ff0000	10pct	1	50pct	50pct	2000	240772	242788	240455	57	243258	470	0	1	45
6.1.1	win	2020-04-22	13:50:09	1	1	1	USRTblock	1	USRT	48	600000	#ff0000	10pct	1	50pct	50pct	5000	243262	248271	242788	57	248592	321	0	1	46
6.1.1	win	2020-04-22	13:50:09	1	1	1	USRTblock	1	USRT	49	600000	#ff0000	10pct	1	50pct	50pct	8000	248596	256604	248271	57	256947	343	0	1	47
6.1.1	win	2020-04-22	13:50:09	1	1	1	USRTblock	1	USRT	50	600000	#ff0000	10pct	1	50pct	50pct	5000	256951	261970	256604	57	262580	610	0	1	48
6.1.1	win	2020-04-22	13:50:09	1	1	1	USRTblock	1	USRT	51	600000	#ff0000	10pct	1	50pct	50pct	2000	262584	264602	261970	57	265049	447	0	1	49
6.1.1	win	2020-04-22	13:50:09	1	1	1	USRTblock	1	USRT	52	600000	#ff0000	10pct	1	50pct	50pct	2000	265053	267069	264602	57	267467	398	0	1	50
6.1.1	win	2020-04-22	13:50:09	1	1	1	USRTblock	1	USRT	53	600000	#ff0000	10pct	1	50pct	50pct	7000	267470	274486	267069	57	274828	342	0	1	51
6.1.1	win	2020-04-22	13:50:09	1	1	1	USRTblock	1	USRT	54	600000	#ff0000	10pct	1	50pct	50pct	5000	274832	279851	274486	57	280252	401	0	1	52
6.1.1	win	2020-04-22	13:50:09	1	1	1	USRTblock	1	USRT	55	600000	#ff0000	10pct	1	50pct	50pct	6000	280256	286268	279851	57	286573	305	0	1	53
6.1.1	win	2020-04-22	13:50:09	1	1	1	USRTblock	1	USRT	56	600000	#ff0000	10pct	1	50pct	50pct	7000	286576	293584	286268	57	293982	398	0	1	54
6.1.1	win	2020-04-22	13:50:09	1	1	1	USRTblock	1	USRT	57	600000	#ff0000	10pct	1	50pct	50pct	6000	293986	299999	293584	57	300347	348	0	1	55
6.1.1	win	2020-04-22	13:50:09	1	1	1	USRTblock	1	USRT	58	600000	#ff0000	10pct	1	50pct	50pct	6000	300350	306366	299999	57	306776	410	0	1	56
6.1.1	win	2020-04-22	13:50:09	1	1	1	USRTblock	1	USRT	59	600000	#ff0000	10pct	1	50pct	50pct	4000	306779	310798	306366	57	311112	314	0	1	57
6.1.1	win	2020-04-22	13:50:09	1	1	1	USRTblock	1	USRT	60	600000	#ff0000	10pct	1	50pct	50pct	7000	311116	318131	310798	57	318469	338	0	1	58
6.1.1	win	2020-04-22	13:50:09	1	1	1	USRTblock	1	USRT	61	600000	#ff0000	10pct	1	50pct	50pct	4000	318476	322497	318131	57	322825	328	0	1	59
6.1.1	win	2020-04-22	13:50:09	1	1	1	USRTblock	1	USRT	62	600000	#ff0000	10pct	1	50pct	50pct	2000	322828	324847	322497	57	325137	290	0	1	60
6.1.1	win	2020-04-22	13:50:09	1	1	1	USRTblock	1	USRT	63	600000	#ff0000	10pct	1	50pct	50pct	2000	325140	327146	324847	57	327555	409	0	1	61
6.1.1	win	2020-04-22	13:50:09	1	1	1	USRTblock	1	USRT	64	600000	#ff0000	10pct	1	50pct	50pct	4000	327559	331579	327146	57	331882	303	0	1	62
6.1.1	win	2020-04-22	13:50:09	1	1	1	USRTblock	1	USRT	65	600000	#ff0000	10pct	1	50pct	50pct	8000	331885	339895	331579	57	340151	256	0	1	63
6.1.1	win	2020-04-22	13:50:09	1	1	1	USRTblock	1	USRT	66	600000	#ff0000	10pct	1	50pct	50pct	5000	340155	345161	339895	57	345437	276	0	1	64
6.1.1	win	2020-04-22	13:50:09	1	1	1	USRTblock	1	USRT	67	600000	#ff0000	10pct	1	50pct	50pct	8000	345441	353461	345161	57	353774	313	0	1	65
6.1.1	win	2020-04-22	13:50:09	1	1	1	USRTblock	1	USRT	68	600000	#ff0000	10pct	1	50pct	50pct	4000	353777	357793	353461	57	358148	355	0	1	66
6.1.1	win	2020-04-22	13:50:09	1	1	1	USRTblock	1	USRT	69	600000	#ff0000	10pct	1	50pct	50pct	7000	358152	365160	357793	57	365440	280	0	1	67
6.1.1	win	2020-04-22	13:50:09	1	1	1	USRTblock	1	USRT	70	600000	#ff0000	10pct	1	50pct	50pct	2000	365443	367459	365160	57	367844	385	0	1	68
6.1.1	win	2020-04-22	13:50:09	1	1	1	USRTblock	1	USRT	71	600000	#ff0000	10pct	1	50pct	50pct	7000	367847	374859	367459	57	375264	405	0	1	69
6.1.1	win	2020-04-22	13:50:09	1	1	1	USRTblock	1	USRT	72	600000	#ff0000	10pct	1	50pct	50pct	3000	375267	378275	374859	57	378955	680	0	1	70
6.1.1	win	2020-04-22	13:50:09	1	1	1	USRTblock	1	USRT	73	600000	#ff0000	10pct	1	50pct	50pct	4000	378969	382974	378275	57	383430	456	0	1	71
6.1.1	win	2020-04-22	13:50:09	1	1	1	USRTblock	1	USRT	74	600000	#ff0000	10pct	1	50pct	50pct	2000	383434	385441	382974	57	385960	519	0	1	72
6.1.1	win	2020-04-22	13:50:09	1	1	1	USRTblock	1	USRT	75	600000	#ff0000	10pct	1	50pct	50pct	7000	385963	392974	385441	57	393239	265	0	1	73
6.1.1	win	2020-04-22	13:50:09	1	1	1	USRTblock	1	USRT	76	600000	#ff0000	10pct	1	50pct	50pct	5000	393243	398256	392974	57	398499	243	0	1	74
6.1.1	win	2020-04-22	13:50:09	1	1	1	USRTblock	1	USRT	77	600000	#ff0000	10pct	1	50pct	50pct	7000	398502	405522	398256	57	405785	263	0	1	75
6.1.1	win	2020-04-22	13:50:09	1	1	1	USRTblock	1	USRT	78	600000	#ff0000	10pct	1	50pct	50pct	8000	405788	413805	405522	57	414072	267	0	1	76
6.1.1	win	2020-04-22	13:50:09	1	1	1	USRTblock	1	USRT	79	600000	#ff0000	10pct	1	50pct	50pct	3000	414075	417087	413805	57	417389	302	0	1	77
6.1.1	win	2020-04-22	13:50:09	1	1	1	USRTblock	1	USRT	80	600000	#ff0000	10pct	1	50pct	50pct	2000	417392	419403	417087	57	419728	325	0	1	78
6.1.1	win	2020-04-22	13:50:09	1	1	1	USRTblock	1	USRT	81	600000	#ff0000	10pct	1	50pct	50pct	5000	419731	424737	419403	57	425021	284	0	1	79
6.1.1	win	2020-04-22	13:50:09	1	1	1	USRTblock	1	USRT	82	600000	#ff0000	10pct	1	50pct	50pct	7000	425024	432036	424737	57	432311	275	0	1	80
6.1.1	win	2020-04-22	13:50:09	1	1	1	USRTblock	1	USRT	83	600000	#ff0000	10pct	1	50pct	50pct	4000	432314	436319	432036	57	436613	294	0	1	81
6.1.1	win	2020-04-22	13:50:09	1	1	1	USRTblock	1	USRT	84	600000	#ff0000	10pct	1	50pct	50pct	6000	436617	442635	436319	57	443027	392	0	1	82
6.1.1	win	2020-04-22	13:50:09	1	1	1	USRTblock	1	USRT	85	600000	#ff0000	10pct	1	50pct	50pct	2000	443031	445051	442635	57	445432	381	0	1	83
6.1.1	win	2020-04-22	13:50:09	1	1	1	USRTblock	1	USRT	86	600000	#ff0000	10pct	1	50pct	50pct	5000	445435	450451	445051	57	450879	428	0	1	84
6.1.1	win	2020-04-22	13:50:09	1	1	1	USRTblock	1	USRT	87	600000	#ff0000	10pct	1	50pct	50pct	6000	450882	456901	450451	57	457224	323	0	1	85
6.1.1	win	2020-04-22	13:50:09	1	1	1	USRTblock	1	USRT	88	600000	#ff0000	10pct	1	50pct	50pct	4000	457227	461233	456901	57	461550	317	0	1	86
6.1.1	win	2020-04-22	13:50:09	1	1	1	USRTblock	1	USRT	89	600000	#ff0000	10pct	1	50pct	50pct	7000	461553	468567	461233	57	468859	292	0	1	87
6.1.1	win	2020-04-22	13:50:09	1	1	1	USRTblock	1	USRT	90	600000	#ff0000	10pct	1	50pct	50pct	2000	468863	470881	468567	57	471351	470	0	1	88
6.1.1	win	2020-04-22	13:50:09	1	1	1	USRTblock	1	USRT	91	600000	#ff0000	10pct	1	50pct	50pct	8000	471355	479365	470881	57	479747	382	0	1	89
6.1.1	win	2020-04-22	13:50:09	1	1	1	USRTblock	1	USRT	92	600000	#ff0000	10pct	1	50pct	50pct	2000	479773	481780	479365	57	482188	408	0	1	90
6.1.1	win	2020-04-22	13:50:09	1	1	1	USRTblock	1	USRT	93	600000	#ff0000	10pct	1	50pct	50pct	6000	482191	488197	481780	57	488570	373	0	1	91
6.1.1	win	2020-04-22	13:50:09	1	1	1	USRTblock	1	USRT	94	600000	#ff0000	10pct	1	50pct	50pct	5000	488573	493580	488197	57	493913	333	0	1	92
6.1.1	win	2020-04-22	13:50:09	1	1	1	USRTblock	1	USRT	95	600000	#ff0000	10pct	1	50pct	50pct	2000	493917	495929	493580	57	496343	414	0	1	93
6.1.1	win	2020-04-22	13:50:09	1	1	1	USRTblock	1	USRT	96	600000	#ff0000	10pct	1	50pct	50pct	4000	496347	500362	495929	57	500747	385	0	1	94
6.1.1	win	2020-04-22	13:50:09	1	1	1	USRTblock	1	USRT	97	600000	#ff0000	10pct	1	50pct	50pct	8000	500750	508762	500362	57	509072	310	0	1	95
6.1.1	win	2020-04-22	13:50:09	1	1	1	USRTblock	1	USRT	98	600000	#ff0000	10pct	1	50pct	50pct	5000	509075	514094	508762	57	514387	293	0	1	96
6.1.1	win	2020-04-22	13:50:09	1	1	1	USRTblock	1	USRT	99	600000	#ff0000	10pct	1	50pct	50pct	5000	514390	519411	514094	57	519683	272	0	1	97
6.1.1	win	2020-04-22	13:50:09	1	1	1	USRTblock	1	USRT	100	600000	#ff0000	10pct	1	50pct	50pct	2000	519687	521694	519411	57	522000	306	0	1	98
6.1.1	win	2020-04-22	13:50:09	1	1	1	USRTblock	1	USRT	101	600000	#ff0000	10pct	1	50pct	50pct	7000	522003	529011	521694	57	529305	294	0	1	99
6.1.1	win	2020-04-22	13:50:09	1	1	1	USRTblock	1	USRT	102	600000	#ff0000	10pct	1	50pct	50pct	2000	529309	531326	529011	57	531709	383	0	1	100
6.1.1	win	2020-04-22	13:50:09	1	1	1	USRTblock	1	USRT	103	600000	#ff0000	10pct	1	50pct	50pct	3000	531712	534725	531326	57	535142	417	0	1	101
6.1.1	win	2020-04-22	13:50:09	1	1	1	USRTblock	1	USRT	104	600000	#ff0000	10pct	1	50pct	50pct	6000	535146	541158	534725	57	541510	352	0	1	102
6.1.1	win	2020-04-22	13:50:09	1	1	1	USRTblock	1	USRT	105	600000	#ff0000	10pct	1	50pct	50pct	5000	541514	546524	541158	57	546883	359	0	1	103
6.1.1	win	2020-04-22	13:50:09	1	1	1	USRTblock	1	USRT	106	600000	#ff0000	10pct	1	50pct	50pct	3000	546887	549908	546524	57	550245	337	0	1	104
6.1.1	win	2020-04-22	13:50:09	1	1	1	USRTblock	1	USRT	107	600000	#ff0000	10pct	1	50pct	50pct	7000	550249	557257	549908	57	557528	271	0	1	105
6.1.1	win	2020-04-22	13:50:09	1	1	1	USRTblock	1	USRT	108	600000	#ff0000	10pct	1	50pct	50pct	2000	557531	559540	557257	57	559888	348	0	1	106
6.1.1	win	2020-04-22	13:50:09	1	1	1	USRTblock	1	USRT	109	600000	#ff0000	10pct	1	50pct	50pct	5000	559892	564906	559540	57	565190	284	0	1	107
6.1.1	win	2020-04-22	13:50:09	1	1	1	USRTblock	1	USRT	110	600000	#ff0000	10pct	1	50pct	50pct	2000	565193	567206	564906	57	567979	773	0	1	108
6.1.1	win	2020-04-22	13:50:09	1	1	1	USRTblock	1	USRT	111	600000	#ff0000	10pct	1	50pct	50pct	7000	567982	574989	567206	57	575303	314	0	1	109
6.1.1	win	2020-04-22	13:50:09	1	1	1	USRTblock	1	USRT	112	600000	#ff0000	10pct	1	50pct	50pct	4000	575307	579321	574989	57	579612	291	0	1	110
6.1.1	win	2020-04-22	13:50:09	1	1	1	USRTblock	1	USRT	113	600000	#ff0000	10pct	1	50pct	50pct	4000	579616	583638	579321	57	583938	300	0	1	111
6.1.1	win	2020-04-22	13:50:09	1	1	1	USRTblock	1	USRT	114	600000	#ff0000	10pct	1	50pct	50pct	6000	583942	589953	583638	57	590233	280	0	1	112
6.1.1	win	2020-04-22	13:50:09	1	1	1	USRTblock	1	USRT	115	600000	#ff0000	10pct	1	50pct	50pct	2000	590237	592253	589953	57	592562	309	0	1	113
6.1.1	win	2020-04-22	13:50:09	1	1	1	USRTblock	1	USRT	116	600000	#ff0000	10pct	1	50pct	50pct	3000	592565	595570	592253	57	595900	330	0	1	114
6.1.1	win	2020-04-22	13:50:09	1	1	1	USRTblock	1	USRT	117	600000	#ff0000	10pct	1	50pct	50pct	5000	595905	600919	595570	0	596003	-4916	0	1	115
