build	computer.platform	date	time	subject	group	sessionid	blockcode	blocknum	trialcode	trialnum	testduration	targetcolor	targetsize	fixed	targetx	targety	stiminterval	trialStart	shape.targetcircle.timestamp	lastCircleTimestamp	response	rt_elapsed	rt	EarlyResponse	countEarlyResponses	countResponses
6.1.1	win	2020-04-21	16:49:01	1	1	1	USRTblock	1	USRT	3	600000	#ff0000	10pct	1	50pct	50pct	8000	3438	11455	2719	57	11712	257	0	0	1
6.1.1	win	2020-04-21	16:49:01	1	1	1	USRTblock	1	USRT	4	600000	#ff0000	10pct	1	50pct	50pct	7000	11728	18738	11455	57	19047	309	0	0	2
6.1.1	win	2020-04-21	16:49:01	1	1	1	USRTblock	1	USRT	5	600000	#ff0000	10pct	1	50pct	50pct	8000	19051	27071	18738	57	27358	287	0	0	3
6.1.1	win	2020-04-21	16:49:01	1	1	1	USRTblock	1	USRT	6	600000	#ff0000	10pct	1	50pct	50pct	2000	27362	29370	27071	57	29694	324	0	0	4
6.1.1	win	2020-04-21	16:49:01	1	1	1	USRTblock	1	USRT	7	600000	#ff0000	10pct	1	50pct	50pct	5000	29698	34702	29370	57	34979	277	0	0	5
6.1.1	win	2020-04-21	16:49:01	1	1	1	USRTblock	1	USRT	8	600000	#ff0000	10pct	1	50pct	50pct	6000	34983	41002	34702	57	41287	285	0	0	6
6.1.1	win	2020-04-21	16:49:01	1	1	1	USRTblock	1	USRT	9	600000	#ff0000	10pct	1	50pct	50pct	3000	41290	44301	41002	57	44830	529	0	0	7
6.1.1	win	2020-04-21	16:49:01	1	1	1	USRTblock	1	USRT	10	600000	#ff0000	10pct	1	50pct	50pct	3000	44833	47851	44301	57	48284	433	0	0	8
6.1.1	win	2020-04-21	16:49:01	1	1	1	USRTblock	1	USRT	11	600000	#ff0000	10pct	1	50pct	50pct	4000	48287	52301	47851	57	52685	384	0	0	9
6.1.1	win	2020-04-21	16:49:01	1	1	1	USRTblock	1	USRT	12	600000	#ff0000	10pct	1	50pct	50pct	5000	52689	57701	52301	57	58016	315	0	0	10
6.1.1	win	2020-04-21	16:49:01	1	1	1	USRTblock	1	USRT	13	600000	#ff0000	10pct	1	50pct	50pct	5000	58020	63033	57701	57	63291	258	0	0	11
6.1.1	win	2020-04-21	16:49:01	1	1	1	USRTblock	1	USRT	14	600000	#ff0000	10pct	1	50pct	50pct	3000	63295	66316	63033	57	66625	309	0	0	12
6.1.1	win	2020-04-21	16:49:01	1	1	1	USRTblock	1	USRT	15	600000	#ff0000	10pct	1	50pct	50pct	5000	66630	71649	66316	57	71904	255	0	0	13
6.1.1	win	2020-04-21	16:49:01	1	1	1	USRTblock	1	USRT	16	600000	#ff0000	10pct	1	50pct	50pct	2000	71908	73915	71649	57	74246	331	0	0	14
6.1.1	win	2020-04-21	16:49:01	1	1	1	USRTblock	1	USRT	17	600000	#ff0000	10pct	1	50pct	50pct	8000	74250	82265	73915	57	82528	263	0	0	15
6.1.1	win	2020-04-21	16:49:01	1	1	1	USRTblock	1	USRT	18	600000	#ff0000	10pct	1	50pct	50pct	8000	82532	90547	82265	57	90830	283	0	0	16
6.1.1	win	2020-04-21	16:49:01	1	1	1	USRTblock	1	USRT	19	600000	#ff0000	10pct	1	50pct	50pct	7000	90833	97846	90547	57	98144	298	0	0	17
6.1.1	win	2020-04-21	16:49:01	1	1	1	USRTblock	1	USRT	20	600000	#ff0000	10pct	1	50pct	50pct	4000	98148	102163	97846	57	102453	290	0	0	18
6.1.1	win	2020-04-21	16:49:01	1	1	1	USRTblock	1	USRT	21	600000	#ff0000	10pct	1	50pct	50pct	2000	102457	104462	102163	57	104760	298	0	0	19
6.1.1	win	2020-04-21	16:49:01	1	1	1	USRTblock	1	USRT	22	600000	#ff0000	10pct	1	50pct	50pct	5000	104764	109779	104462	57	110037	258	0	0	20
6.1.1	win	2020-04-21	16:49:01	1	1	1	USRTblock	1	USRT	23	600000	#ff0000	10pct	1	50pct	50pct	6000	110041	116061	109779	57	116354	293	0	0	21
6.1.1	win	2020-04-21	16:49:01	1	1	1	USRTblock	1	USRT	24	600000	#ff0000	10pct	1	50pct	50pct	6000	116358	122377	116061	57	122694	317	0	0	22
6.1.1	win	2020-04-21	16:49:01	1	1	1	USRTblock	1	USRT	25	600000	#ff0000	10pct	1	50pct	50pct	2000	122697	124710	122377	57	125057	347	0	0	23
6.1.1	win	2020-04-21	16:49:01	1	1	1	USRTblock	1	USRT	26	600000	#ff0000	10pct	1	50pct	50pct	5000	125061	130076	124710	57	130332	256	0	0	24
6.1.1	win	2020-04-21	16:49:01	1	1	1	USRTblock	1	USRT	27	600000	#ff0000	10pct	1	50pct	50pct	6000	130335	136342	130076	57	136627	285	0	0	25
6.1.1	win	2020-04-21	16:49:01	1	1	1	USRTblock	1	USRT	28	600000	#ff0000	10pct	1	50pct	50pct	7000	136630	143642	136342	57	143941	299	0	0	26
6.1.1	win	2020-04-21	16:49:01	1	1	1	USRTblock	1	USRT	29	600000	#ff0000	10pct	1	50pct	50pct	2000	143944	145958	143642	57	146286	328	0	0	27
6.1.1	win	2020-04-21	16:49:01	1	1	1	USRTblock	1	USRT	30	600000	#ff0000	10pct	1	50pct	50pct	6000	146290	152308	145958	57	152569	261	0	0	28
6.1.1	win	2020-04-21	16:49:01	1	1	1	USRTblock	1	USRT	31	600000	#ff0000	10pct	1	50pct	50pct	6000	152572	158590	152308	57	158883	293	0	0	29
6.1.1	win	2020-04-21	16:49:01	1	1	1	USRTblock	1	USRT	32	600000	#ff0000	10pct	1	50pct	50pct	4000	158887	162907	158590	57	163202	295	0	0	30
6.1.1	win	2020-04-21	16:49:01	1	1	1	USRTblock	1	USRT	33	600000	#ff0000	10pct	1	50pct	50pct	5000	163205	168223	162907	57	168541	318	0	0	31
6.1.1	win	2020-04-21	16:49:01	1	1	1	USRTblock	1	USRT	34	600000	#ff0000	10pct	1	50pct	50pct	6000	168546	174555	168223	57	174825	270	0	0	32
6.1.1	win	2020-04-21	16:49:01	1	1	1	USRTblock	1	USRT	35	600000	#ff0000	10pct	1	50pct	50pct	6000	174828	180838	174555	57	181121	283	0	0	33
6.1.1	win	2020-04-21	16:49:01	1	1	1	USRTblock	1	USRT	36	600000	#ff0000	10pct	1	50pct	50pct	3000	181124	184137	180838	57	184512	375	0	0	34
6.1.1	win	2020-04-21	16:49:01	1	1	1	USRTblock	1	USRT	37	600000	#ff0000	10pct	1	50pct	50pct	2000	184515	186521	184137	57	186973	452	0	0	35
6.1.1	win	2020-04-21	16:49:01	1	1	1	USRTblock	1	USRT	38	600000	#ff0000	10pct	1	50pct	50pct	6000	186977	192987	186521	57	193303	316	0	0	36
6.1.1	win	2020-04-21	16:49:01	1	1	1	USRTblock	1	USRT	39	600000	#ff0000	10pct	1	50pct	50pct	5000	193306	198319	192987	57	198659	340	0	0	37
6.1.1	win	2020-04-21	16:49:01	1	1	1	USRTblock	1	USRT	40	600000	#ff0000	10pct	1	50pct	50pct	7000	198663	205669	198319	57	205966	297	0	0	38
6.1.1	win	2020-04-21	16:49:01	1	1	1	USRTblock	1	USRT	41	600000	#ff0000	10pct	1	50pct	50pct	2000	205970	207985	205669	57	208315	330	0	0	39
6.1.1	win	2020-04-21	16:49:01	1	1	1	USRTblock	1	USRT	42	600000	#ff0000	10pct	1	50pct	50pct	5000	208320	213335	207985	57	213742	407	0	0	40
6.1.1	win	2020-04-21	16:49:01	1	1	1	USRTblock	1	USRT	43	600000	#ff0000	10pct	1	50pct	50pct	7000	213745	220751	213335	57	221030	279	0	0	41
6.1.1	win	2020-04-21	16:49:01	1	1	1	USRTblock	1	USRT	44	600000	#ff0000	10pct	1	50pct	50pct	8000	221034	229050	220751	57	229461	411	0	0	42
6.1.1	win	2020-04-21	16:49:01	1	1	1	USRTblock	1	USRT	45	600000	#ff0000	10pct	1	50pct	50pct	7000	229490	236500	229050	57	236918	418	0	0	43
6.1.1	win	2020-04-21	16:49:01	1	1	1	USRTblock	1	USRT	46	600000	#ff0000	10pct	1	50pct	50pct	3000	236921	239932	236500	57	240365	433	0	0	44
6.1.1	win	2020-04-21	16:49:01	1	1	1	USRTblock	1	USRT	47	600000	#ff0000	10pct	1	50pct	50pct	8000	240369	248381	239932	57	248691	310	0	0	45
6.1.1	win	2020-04-21	16:49:01	1	1	1	USRTblock	1	USRT	48	600000	#ff0000	10pct	1	50pct	50pct	6000	248695	254714	248381	57	255264	550	0	0	46
6.1.1	win	2020-04-21	16:49:01	1	1	1	USRTblock	1	USRT	49	600000	#ff0000	10pct	1	50pct	50pct	6000	255267	261280	254714	57	261855	575	0	0	47
6.1.1	win	2020-04-21	16:49:01	1	1	1	USRTblock	1	USRT	50	600000	#ff0000	10pct	1	50pct	50pct	4000	261858	265879	261280	57	266244	365	0	0	48
6.1.1	win	2020-04-21	16:49:01	1	1	1	USRTblock	1	USRT	51	600000	#ff0000	10pct	1	50pct	50pct	4000	266247	270262	265879	57	270633	371	0	0	49
6.1.1	win	2020-04-21	16:49:01	1	1	1	USRTblock	1	USRT	52	600000	#ff0000	10pct	1	50pct	50pct	2000	270636	272645	270262	57	273019	374	0	0	50
6.1.1	win	2020-04-21	16:49:01	1	1	1	USRTblock	1	USRT	53	600000	#ff0000	10pct	1	50pct	50pct	5000	273023	278028	272645	57	278444	416	0	0	51
6.1.1	win	2020-04-21	16:49:01	1	1	1	USRTblock	1	USRT	54	600000	#ff0000	10pct	1	50pct	50pct	3000	278448	281461	278028	57	281772	311	0	0	52
6.1.1	win	2020-04-21	16:49:01	1	1	1	USRTblock	1	USRT	55	600000	#ff0000	10pct	1	50pct	50pct	2000	281775	283794	281461	57	284129	335	0	0	53
6.1.1	win	2020-04-21	16:49:01	1	1	1	USRTblock	1	USRT	56	600000	#ff0000	10pct	1	50pct	50pct	6000	284133	290144	283794	57	290407	263	0	0	54
6.1.1	win	2020-04-21	16:49:01	1	1	1	USRTblock	1	USRT	57	600000	#ff0000	10pct	1	50pct	50pct	7000	290410	297427	290144	57	297705	278	0	0	55
6.1.1	win	2020-04-21	16:49:01	1	1	1	USRTblock	1	USRT	58	600000	#ff0000	10pct	1	50pct	50pct	5000	297709	302726	297427	57	303266	540	0	0	56
6.1.1	win	2020-04-21	16:49:01	1	1	1	USRTblock	1	USRT	59	600000	#ff0000	10pct	1	50pct	50pct	4000	303270	307292	302726	57	307995	703	0	0	57
6.1.1	win	2020-04-21	16:49:01	1	1	1	USRTblock	1	USRT	60	600000	#ff0000	10pct	1	50pct	50pct	2000	307998	310008	307292	57	310539	531	0	0	58
6.1.1	win	2020-04-21	16:49:01	1	1	1	USRTblock	1	USRT	61	600000	#ff0000	10pct	1	50pct	50pct	8000	310542	318558	310008	57	318841	283	0	0	59
6.1.1	win	2020-04-21	16:49:01	1	1	1	USRTblock	1	USRT	62	600000	#ff0000	10pct	1	50pct	50pct	5000	318844	323857	318558	57	323995	138	0	0	60
6.1.1	win	2020-04-21	16:49:01	1	1	1	USRTblock	1	USRT	63	600000	#ff0000	10pct	1	50pct	50pct	2000	323999	326007	323857	57	326488	481	0	0	61
6.1.1	win	2020-04-21	16:49:01	1	1	1	USRTblock	1	USRT	64	600000	#ff0000	10pct	1	50pct	50pct	2000	326492	328506	326007	57	328841	335	0	0	62
6.1.1	win	2020-04-21	16:49:01	1	1	1	USRTblock	1	USRT	65	600000	#ff0000	10pct	1	50pct	50pct	3000	328845	331856	328506	57	332341	485	0	0	63
6.1.1	win	2020-04-21	16:49:01	1	1	1	USRTblock	1	USRT	66	600000	#ff0000	10pct	1	50pct	50pct	8000	332345	340356	331856	57	340785	429	0	0	64
6.1.1	win	2020-04-21	16:49:01	1	1	1	USRTblock	1	USRT	67	600000	#ff0000	10pct	1	50pct	50pct	2000	340790	342805	340356	57	343312	507	0	0	65
6.1.1	win	2020-04-21	16:49:01	1	1	1	USRTblock	1	USRT	68	600000	#ff0000	10pct	1	50pct	50pct	5000	343316	348321	342805	57	348638	317	0	0	66
6.1.1	win	2020-04-21	16:49:01	1	1	1	USRTblock	1	USRT	69	600000	#ff0000	10pct	1	50pct	50pct	7000	348641	355654	348321	57	356076	422	0	0	67
6.1.1	win	2020-04-21	16:49:01	1	1	1	USRTblock	1	USRT	70	600000	#ff0000	10pct	1	50pct	50pct	6000	356080	362086	355654	57	362334	248	0	0	68
6.1.1	win	2020-04-21	16:49:01	1	1	1	USRTblock	1	USRT	71	600000	#ff0000	10pct	1	50pct	50pct	8000	362338	-1	362086	57	366638	0	1	1	69
6.1.1	win	2020-04-21	16:49:01	1	1	1	USRTblock	1	USRT	72	600000	#ff0000	10pct	1	50pct	50pct	2000	366642	368653	-1	57	369051	398	0	1	70
6.1.1	win	2020-04-21	16:49:01	1	1	1	USRTblock	1	USRT	73	600000	#ff0000	10pct	1	50pct	50pct	4000	369055	373069	368653	57	373370	301	0	1	71
6.1.1	win	2020-04-21	16:49:01	1	1	1	USRTblock	1	USRT	74	600000	#ff0000	10pct	1	50pct	50pct	4000	373374	377385	373069	57	377679	294	0	1	72
6.1.1	win	2020-04-21	16:49:01	1	1	1	USRTblock	1	USRT	75	600000	#ff0000	10pct	1	50pct	50pct	5000	377683	382701	377385	57	383307	606	0	1	73
6.1.1	win	2020-04-21	16:49:01	1	1	1	USRTblock	1	USRT	76	600000	#ff0000	10pct	1	50pct	50pct	7000	383311	390317	382701	57	390579	262	0	1	74
6.1.1	win	2020-04-21	16:49:01	1	1	1	USRTblock	1	USRT	77	600000	#ff0000	10pct	1	50pct	50pct	3000	390582	393600	390317	57	393944	344	0	1	75
6.1.1	win	2020-04-21	16:49:01	1	1	1	USRTblock	1	USRT	78	600000	#ff0000	10pct	1	50pct	50pct	3000	393948	396966	393600	57	397285	319	0	1	76
6.1.1	win	2020-04-21	16:49:01	1	1	1	USRTblock	1	USRT	79	600000	#ff0000	10pct	1	50pct	50pct	8000	397288	405299	396966	57	405547	248	0	1	77
6.1.1	win	2020-04-21	16:49:01	1	1	1	USRTblock	1	USRT	80	600000	#ff0000	10pct	1	50pct	50pct	6000	405550	411565	405299	57	411847	282	0	1	78
6.1.1	win	2020-04-21	16:49:01	1	1	1	USRTblock	1	USRT	81	600000	#ff0000	10pct	1	50pct	50pct	8000	411850	419865	411565	57	420162	297	0	1	79
6.1.1	win	2020-04-21	16:49:01	1	1	1	USRTblock	1	USRT	82	600000	#ff0000	10pct	1	50pct	50pct	5000	420166	425181	419865	57	425485	304	0	1	80
6.1.1	win	2020-04-21	16:49:01	1	1	1	USRTblock	1	USRT	83	600000	#ff0000	10pct	1	50pct	50pct	2000	425489	427496	425181	57	427852	356	0	1	81
6.1.1	win	2020-04-21	16:49:01	1	1	1	USRTblock	1	USRT	84	600000	#ff0000	10pct	1	50pct	50pct	2000	427855	429863	427496	57	430204	341	0	1	82
6.1.1	win	2020-04-21	16:49:01	1	1	1	USRTblock	1	USRT	85	600000	#ff0000	10pct	1	50pct	50pct	7000	430207	437212	429863	57	437678	466	0	1	83
6.1.1	win	2020-04-21	16:49:01	1	1	1	USRTblock	1	USRT	86	600000	#ff0000	10pct	1	50pct	50pct	2000	437681	439695	437212	57	440247	552	0	1	84
6.1.1	win	2020-04-21	16:49:01	1	1	1	USRTblock	1	USRT	87	600000	#ff0000	10pct	1	50pct	50pct	3000	440252	443262	439695	57	443593	331	0	1	85
6.1.1	win	2020-04-21	16:49:01	1	1	1	USRTblock	1	USRT	88	600000	#ff0000	10pct	1	50pct	50pct	5000	443596	448612	443262	57	448926	314	0	1	86
6.1.1	win	2020-04-21	16:49:01	1	1	1	USRTblock	1	USRT	89	600000	#ff0000	10pct	1	50pct	50pct	4000	448930	452944	448612	57	453247	303	0	1	87
6.1.1	win	2020-04-21	16:49:01	1	1	1	USRTblock	1	USRT	90	600000	#ff0000	10pct	1	50pct	50pct	2000	453251	455260	452944	57	455554	294	0	1	88
6.1.1	win	2020-04-21	16:49:01	1	1	1	USRTblock	1	USRT	91	600000	#ff0000	10pct	1	50pct	50pct	6000	455559	461577	455260	57	461942	365	0	1	89
6.1.1	win	2020-04-21	16:49:01	1	1	1	USRTblock	1	USRT	92	600000	#ff0000	10pct	1	50pct	50pct	7000	461946	468960	461577	57	469207	247	0	1	90
6.1.1	win	2020-04-21	16:49:01	1	1	1	USRTblock	1	USRT	93	600000	#ff0000	10pct	1	50pct	50pct	8000	469211	477225	468960	57	477551	326	0	1	91
6.1.1	win	2020-04-21	16:49:01	1	1	1	USRTblock	1	USRT	94	600000	#ff0000	10pct	1	50pct	50pct	5000	477555	482575	477225	57	482972	397	0	1	92
6.1.1	win	2020-04-21	16:49:01	1	1	1	USRTblock	1	USRT	95	600000	#ff0000	10pct	1	50pct	50pct	2000	482976	484991	482575	57	485304	313	0	1	93
6.1.1	win	2020-04-21	16:49:01	1	1	1	USRTblock	1	USRT	96	600000	#ff0000	10pct	1	50pct	50pct	8000	485308	493324	484991	57	493622	298	0	1	94
6.1.1	win	2020-04-21	16:49:01	1	1	1	USRTblock	1	USRT	97	600000	#ff0000	10pct	1	50pct	50pct	5000	493626	498639	493324	57	498911	272	0	1	95
6.1.1	win	2020-04-21	16:49:01	1	1	1	USRTblock	1	USRT	98	600000	#ff0000	10pct	1	50pct	50pct	8000	498916	506923	498639	57	507207	284	0	1	96
6.1.1	win	2020-04-21	16:49:01	1	1	1	USRTblock	1	USRT	99	600000	#ff0000	10pct	1	50pct	50pct	5000	507210	512222	506923	57	512538	316	0	1	97
6.1.1	win	2020-04-21	16:49:01	1	1	1	USRTblock	1	USRT	100	600000	#ff0000	10pct	1	50pct	50pct	4000	512542	516554	512222	57	516877	323	0	1	98
6.1.1	win	2020-04-21	16:49:01	1	1	1	USRTblock	1	USRT	101	600000	#ff0000	10pct	1	50pct	50pct	8000	516881	524887	516554	57	525199	312	0	1	99
6.1.1	win	2020-04-21	16:49:01	1	1	1	USRTblock	1	USRT	102	600000	#ff0000	10pct	1	50pct	50pct	5000	525202	530220	524887	57	530549	329	0	1	100
6.1.1	win	2020-04-21	16:49:01	1	1	1	USRTblock	1	USRT	103	600000	#ff0000	10pct	1	50pct	50pct	3000	530552	533569	530220	57	533925	356	0	1	101
6.1.1	win	2020-04-21	16:49:01	1	1	1	USRTblock	1	USRT	104	600000	#ff0000	10pct	1	50pct	50pct	2000	533929	535935	533569	57	536298	363	0	1	102
6.1.1	win	2020-04-21	16:49:01	1	1	1	USRTblock	1	USRT	105	600000	#ff0000	10pct	1	50pct	50pct	3000	536302	539318	535935	57	539667	349	0	1	103
6.1.1	win	2020-04-21	16:49:01	1	1	1	USRTblock	1	USRT	106	600000	#ff0000	10pct	1	50pct	50pct	8000	539671	547685	539318	57	547941	256	0	1	104
6.1.1	win	2020-04-21	16:49:01	1	1	1	USRTblock	1	USRT	107	600000	#ff0000	10pct	1	50pct	50pct	2000	547944	549951	547685	57	550322	371	0	1	105
6.1.1	win	2020-04-21	16:49:01	1	1	1	USRTblock	1	USRT	108	600000	#ff0000	10pct	1	50pct	50pct	5000	550326	555334	549951	57	555621	287	0	1	106
6.1.1	win	2020-04-21	16:49:01	1	1	1	USRTblock	1	USRT	109	600000	#ff0000	10pct	1	50pct	50pct	3000	555625	558633	555334	57	558940	307	0	1	107
6.1.1	win	2020-04-21	16:49:01	1	1	1	USRTblock	1	USRT	110	600000	#ff0000	10pct	1	50pct	50pct	2000	558945	560966	558633	57	561249	283	0	1	108
6.1.1	win	2020-04-21	16:49:01	1	1	1	USRTblock	1	USRT	111	600000	#ff0000	10pct	1	50pct	50pct	7000	561253	568266	560966	57	568702	436	0	1	109
6.1.1	win	2020-04-21	16:49:01	1	1	1	USRTblock	1	USRT	112	600000	#ff0000	10pct	1	50pct	50pct	5000	568706	573715	568266	57	574104	389	0	1	110
6.1.1	win	2020-04-21	16:49:01	1	1	1	USRTblock	1	USRT	113	600000	#ff0000	10pct	1	50pct	50pct	4000	574108	578115	573715	57	578433	318	0	1	111
6.1.1	win	2020-04-21	16:49:01	1	1	1	USRTblock	1	USRT	114	600000	#ff0000	10pct	1	50pct	50pct	8000	578436	586448	578115	57	586735	287	0	1	112
6.1.1	win	2020-04-21	16:49:01	1	1	1	USRTblock	1	USRT	115	600000	#ff0000	10pct	1	50pct	50pct	7000	586738	593747	586448	57	594043	296	0	1	113
6.1.1	win	2020-04-21	16:49:01	1	1	1	USRTblock	1	USRT	116	600000	#ff0000	10pct	1	50pct	50pct	5000	594047	599063	593747	57	599353	290	0	1	114
6.1.1	win	2020-04-21	16:49:01	1	1	1	USRTblock	1	USRT	117	600000	#ff0000	10pct	1	50pct	50pct	4000	599357	-1	599063	0	599512	0	1	2	115
