build	computer.platform	date	time	subject	group	sessionid	blockcode	blocknum	trialcode	trialnum	testduration	targetcolor	targetsize	fixed	targetx	targety	stiminterval	trialStart	shape.targetcircle.timestamp	lastCircleTimestamp	response	rt_elapsed	rt	EarlyResponse	countEarlyResponses	countResponses
6.1.1	win	2020-04-21	16:28:17	1	1	1	USRTblock	1	USRT	3	600000	#ff0000	10pct	1	50pct	50pct	7000	2671	-1	1950	57	4780	0	1	1	1
6.1.1	win	2020-04-21	16:28:17	1	1	1	USRTblock	1	USRT	4	600000	#ff0000	10pct	1	50pct	50pct	5000	4793	9803	-1	57	10035	232	0	1	2
6.1.1	win	2020-04-21	16:28:17	1	1	1	USRTblock	1	USRT	5	600000	#ff0000	10pct	1	50pct	50pct	4000	10038	14052	9803	57	14396	344	0	1	3
6.1.1	win	2020-04-21	16:28:17	1	1	1	USRTblock	1	USRT	6	600000	#ff0000	10pct	1	50pct	50pct	6000	14399	20418	14052	57	20862	444	0	1	4
6.1.1	win	2020-04-21	16:28:17	1	1	1	USRTblock	1	USRT	7	600000	#ff0000	10pct	1	50pct	50pct	4000	20866	24884	20418	57	25747	863	0	1	5
6.1.1	win	2020-04-21	16:28:17	1	1	1	USRTblock	1	USRT	8	600000	#ff0000	10pct	1	50pct	50pct	8000	25751	33768	24884	57	34166	398	0	1	6
6.1.1	win	2020-04-21	16:28:17	1	1	1	USRTblock	1	USRT	9	600000	#ff0000	10pct	1	50pct	50pct	3000	34170	37183	33768	57	37611	428	0	1	7
6.1.1	win	2020-04-21	16:28:17	1	1	1	USRTblock	1	USRT	10	600000	#ff0000	10pct	1	50pct	50pct	3000	37615	40633	37183	57	41030	397	0	1	8
6.1.1	win	2020-04-21	16:28:17	1	1	1	USRTblock	1	USRT	11	600000	#ff0000	10pct	1	50pct	50pct	8000	41033	49049	40633	57	49406	357	0	1	9
6.1.1	win	2020-04-21	16:28:17	1	1	1	USRTblock	1	USRT	12	600000	#ff0000	10pct	1	50pct	50pct	2000	49410	51415	49049	57	51921	506	0	1	10
6.1.1	win	2020-04-21	16:28:17	1	1	1	USRTblock	1	USRT	13	600000	#ff0000	10pct	1	50pct	50pct	3000	51924	54931	51415	57	55341	410	0	1	11
6.1.1	win	2020-04-21	16:28:17	1	1	1	USRTblock	1	USRT	14	600000	#ff0000	10pct	1	50pct	50pct	3000	55344	58364	54931	57	58711	347	0	1	12
6.1.1	win	2020-04-21	16:28:17	1	1	1	USRTblock	1	USRT	15	600000	#ff0000	10pct	1	50pct	50pct	2000	58714	60731	58364	57	61065	334	0	1	13
6.1.1	win	2020-04-21	16:28:17	1	1	1	USRTblock	1	USRT	16	600000	#ff0000	10pct	1	50pct	50pct	7000	61069	68081	60731	57	68467	386	0	1	14
6.1.1	win	2020-04-21	16:28:17	1	1	1	USRTblock	1	USRT	17	600000	#ff0000	10pct	1	50pct	50pct	4000	68472	72480	68081	57	72877	397	0	1	15
6.1.1	win	2020-04-21	16:28:17	1	1	1	USRTblock	1	USRT	18	600000	#ff0000	10pct	1	50pct	50pct	4000	72881	76896	72480	57	77302	406	0	1	16
6.1.1	win	2020-04-21	16:28:17	1	1	1	USRTblock	1	USRT	19	600000	#ff0000	10pct	1	50pct	50pct	7000	77306	84312	76896	57	84615	303	0	1	17
6.1.1	win	2020-04-21	16:28:17	1	1	1	USRTblock	1	USRT	20	600000	#ff0000	10pct	1	50pct	50pct	4000	84618	88628	84312	57	89081	453	0	1	18
6.1.1	win	2020-04-21	16:28:17	1	1	1	USRTblock	1	USRT	21	600000	#ff0000	10pct	1	50pct	50pct	5000	89086	94095	88628	57	94428	333	0	1	19
6.1.1	win	2020-04-21	16:28:17	1	1	1	USRTblock	1	USRT	22	600000	#ff0000	10pct	1	50pct	50pct	7000	94432	101444	94095	57	101775	331	0	1	20
6.1.1	win	2020-04-21	16:28:17	1	1	1	USRTblock	1	USRT	23	600000	#ff0000	10pct	1	50pct	50pct	7000	101779	108793	101444	57	109127	334	0	1	21
6.1.1	win	2020-04-21	16:28:17	1	1	1	USRTblock	1	USRT	24	600000	#ff0000	10pct	1	50pct	50pct	7000	109131	116142	108793	57	116502	360	0	1	22
6.1.1	win	2020-04-21	16:28:17	1	1	1	USRTblock	1	USRT	25	600000	#ff0000	10pct	1	50pct	50pct	4000	116505	120525	116142	57	120927	402	0	1	23
6.1.1	win	2020-04-21	16:28:17	1	1	1	USRTblock	1	USRT	26	600000	#ff0000	10pct	1	50pct	50pct	7000	120931	127942	120525	57	128225	283	0	1	24
6.1.1	win	2020-04-21	16:28:17	1	1	1	USRTblock	1	USRT	27	600000	#ff0000	10pct	1	50pct	50pct	6000	128229	134241	127942	57	134709	468	0	1	25
6.1.1	win	2020-04-21	16:28:17	1	1	1	USRTblock	1	USRT	28	600000	#ff0000	10pct	1	50pct	50pct	8000	134712	142723	134241	57	143087	364	0	1	26
6.1.1	win	2020-04-21	16:28:17	1	1	1	USRTblock	1	USRT	29	600000	#ff0000	10pct	1	50pct	50pct	5000	143091	148106	142723	57	148435	329	0	1	27
6.1.1	win	2020-04-21	16:28:17	1	1	1	USRTblock	1	USRT	30	600000	#ff0000	10pct	1	50pct	50pct	4000	148438	152455	148106	57	152736	281	0	1	28
6.1.1	win	2020-04-21	16:28:17	1	1	1	USRTblock	1	USRT	31	600000	#ff0000	10pct	1	50pct	50pct	4000	152740	156755	152455	57	157223	468	0	1	29
6.1.1	win	2020-04-21	16:28:17	1	1	1	USRTblock	1	USRT	32	600000	#ff0000	10pct	1	50pct	50pct	6000	157228	163238	156755	57	163563	325	0	1	30
6.1.1	win	2020-04-21	16:28:17	1	1	1	USRTblock	1	USRT	33	600000	#ff0000	10pct	1	50pct	50pct	7000	163566	170571	163238	57	170837	266	0	1	31
6.1.1	win	2020-04-21	16:28:17	1	1	1	USRTblock	1	USRT	34	600000	#ff0000	10pct	1	50pct	50pct	3000	170840	173853	170571	57	174337	484	0	1	32
6.1.1	win	2020-04-21	16:28:17	1	1	1	USRTblock	1	USRT	35	600000	#ff0000	10pct	1	50pct	50pct	3000	174342	177352	173853	57	177614	262	0	1	33
6.1.1	win	2020-04-21	16:28:17	1	1	1	USRTblock	1	USRT	36	600000	#ff0000	10pct	1	50pct	50pct	4000	177618	181636	177352	57	181916	280	0	1	34
6.1.1	win	2020-04-21	16:28:17	1	1	1	USRTblock	1	USRT	37	600000	#ff0000	10pct	1	50pct	50pct	2000	181919	183935	181636	57	184231	296	0	1	35
6.1.1	win	2020-04-21	16:28:17	1	1	1	USRTblock	1	USRT	38	600000	#ff0000	10pct	1	50pct	50pct	3000	184234	187251	183935	57	187525	274	0	1	36
6.1.1	win	2020-04-21	16:28:17	1	1	1	USRTblock	1	USRT	39	600000	#ff0000	10pct	1	50pct	50pct	6000	187529	193535	187251	57	193818	283	0	1	37
6.1.1	win	2020-04-21	16:28:17	1	1	1	USRTblock	1	USRT	40	600000	#ff0000	10pct	1	50pct	50pct	5000	193822	198834	193535	57	199114	280	0	1	38
6.1.1	win	2020-04-21	16:28:17	1	1	1	USRTblock	1	USRT	41	600000	#ff0000	10pct	1	50pct	50pct	2000	199118	201133	198834	57	201483	350	0	1	39
6.1.1	win	2020-04-21	16:28:17	1	1	1	USRTblock	1	USRT	42	600000	#ff0000	10pct	1	50pct	50pct	6000	201487	207500	201133	57	207778	278	0	1	40
6.1.1	win	2020-04-21	16:28:17	1	1	1	USRTblock	1	USRT	43	600000	#ff0000	10pct	1	50pct	50pct	3000	207782	210799	207500	57	211061	262	0	1	41
6.1.1	win	2020-04-21	16:28:17	1	1	1	USRTblock	1	USRT	44	600000	#ff0000	10pct	1	50pct	50pct	4000	211065	215082	210799	57	215420	338	0	1	42
6.1.1	win	2020-04-21	16:28:17	1	1	1	USRTblock	1	USRT	45	600000	#ff0000	10pct	1	50pct	50pct	7000	215423	222432	215082	57	222708	276	0	1	43
6.1.1	win	2020-04-21	16:28:17	1	1	1	USRTblock	1	USRT	46	600000	#ff0000	10pct	1	50pct	50pct	3000	222712	225731	222432	57	226036	305	0	1	44
6.1.1	win	2020-04-21	16:28:17	1	1	1	USRTblock	1	USRT	47	600000	#ff0000	10pct	1	50pct	50pct	5000	226040	231047	225731	57	231313	266	0	1	45
6.1.1	win	2020-04-21	16:28:17	1	1	1	USRTblock	1	USRT	48	600000	#ff0000	10pct	1	50pct	50pct	5000	231316	236330	231047	57	236616	286	0	1	46
6.1.1	win	2020-04-21	16:28:17	1	1	1	USRTblock	1	USRT	49	600000	#ff0000	10pct	1	50pct	50pct	2000	236619	238629	236330	57	238958	329	0	1	47
6.1.1	win	2020-04-21	16:28:17	1	1	1	USRTblock	1	USRT	50	600000	#ff0000	10pct	1	50pct	50pct	8000	238961	246979	238629	57	247313	334	0	1	48
6.1.1	win	2020-04-21	16:28:17	1	1	1	USRTblock	1	USRT	51	600000	#ff0000	10pct	1	50pct	50pct	2000	247316	249329	246979	57	249710	381	0	1	49
6.1.1	win	2020-04-21	16:28:17	1	1	1	USRTblock	1	USRT	52	600000	#ff0000	10pct	1	50pct	50pct	4000	249713	253728	249329	57	254047	319	0	1	50
6.1.1	win	2020-04-21	16:28:17	1	1	1	USRTblock	1	USRT	53	600000	#ff0000	10pct	1	50pct	50pct	5000	254051	259061	253728	57	259305	244	0	1	51
6.1.1	win	2020-04-21	16:28:17	1	1	1	USRTblock	1	USRT	54	600000	#ff0000	10pct	1	50pct	50pct	5000	259308	264327	259061	57	264654	327	0	1	52
6.1.1	win	2020-04-21	16:28:17	1	1	1	USRTblock	1	USRT	55	600000	#ff0000	10pct	1	50pct	50pct	7000	264658	271677	264327	57	271935	258	0	1	53
6.1.1	win	2020-04-21	16:28:17	1	1	1	USRTblock	1	USRT	56	600000	#ff0000	10pct	1	50pct	50pct	7000	271938	278943	271677	57	279256	313	0	1	54
6.1.1	win	2020-04-21	16:28:17	1	1	1	USRTblock	1	USRT	57	600000	#ff0000	10pct	1	50pct	50pct	8000	279260	287275	278943	57	287628	353	0	1	55
6.1.1	win	2020-04-21	16:28:17	1	1	1	USRTblock	1	USRT	58	600000	#ff0000	10pct	1	50pct	50pct	7000	287632	294641	287275	57	294912	271	0	1	56
6.1.1	win	2020-04-21	16:28:17	1	1	1	USRTblock	1	USRT	59	600000	#ff0000	10pct	1	50pct	50pct	5000	294916	299924	294641	57	300213	289	0	1	57
6.1.1	win	2020-04-21	16:28:17	1	1	1	USRTblock	1	USRT	60	600000	#ff0000	10pct	1	50pct	50pct	4000	300216	304223	299924	57	304530	307	0	1	58
6.1.1	win	2020-04-21	16:28:17	1	1	1	USRTblock	1	USRT	61	600000	#ff0000	10pct	1	50pct	50pct	8000	304534	312540	304223	57	312852	312	0	1	59
6.1.1	win	2020-04-21	16:28:17	1	1	1	USRTblock	1	USRT	62	600000	#ff0000	10pct	1	50pct	50pct	3000	312856	315872	312540	57	316242	370	0	1	60
6.1.1	win	2020-04-21	16:28:17	1	1	1	USRTblock	1	USRT	63	600000	#ff0000	10pct	1	50pct	50pct	5000	316246	321255	315872	57	321546	291	0	1	61
6.1.1	win	2020-04-21	16:28:17	1	1	1	USRTblock	1	USRT	64	600000	#ff0000	10pct	1	50pct	50pct	5000	321550	326571	321255	57	326976	405	0	1	62
6.1.1	win	2020-04-21	16:28:17	1	1	1	USRTblock	1	USRT	65	600000	#ff0000	10pct	1	50pct	50pct	7000	326979	333988	326571	57	334321	333	0	1	63
6.1.1	win	2020-04-21	16:28:17	1	1	1	USRTblock	1	USRT	66	600000	#ff0000	10pct	1	50pct	50pct	6000	334325	340337	333988	57	340599	262	0	1	64
6.1.1	win	2020-04-21	16:28:17	1	1	1	USRTblock	1	USRT	67	600000	#ff0000	10pct	1	50pct	50pct	3000	340602	343618	340337	57	343898	280	0	1	65
6.1.1	win	2020-04-21	16:28:17	1	1	1	USRTblock	1	USRT	68	600000	#ff0000	10pct	1	50pct	50pct	7000	343901	350918	343618	57	351201	283	0	1	66
6.1.1	win	2020-04-21	16:28:17	1	1	1	USRTblock	1	USRT	69	600000	#ff0000	10pct	1	50pct	50pct	6000	351204	357218	350918	57	357546	328	0	1	67
6.1.1	win	2020-04-21	16:28:17	1	1	1	USRTblock	1	USRT	70	600000	#ff0000	10pct	1	50pct	50pct	5000	357576	362584	357218	57	362887	303	0	1	68
6.1.1	win	2020-04-21	16:28:17	1	1	1	USRTblock	1	USRT	71	600000	#ff0000	10pct	1	50pct	50pct	4000	362890	366901	362584	57	367254	353	0	1	69
6.1.1	win	2020-04-21	16:28:17	1	1	1	USRTblock	1	USRT	72	600000	#ff0000	10pct	1	50pct	50pct	5000	367258	372266	366901	57	372598	332	0	1	70
6.1.1	win	2020-04-21	16:28:17	1	1	1	USRTblock	1	USRT	73	600000	#ff0000	10pct	1	50pct	50pct	8000	372601	380616	372266	57	380968	352	0	1	71
6.1.1	win	2020-04-21	16:28:17	1	1	1	USRTblock	1	USRT	74	600000	#ff0000	10pct	1	50pct	50pct	7000	380973	387982	380616	57	388330	348	0	1	72
6.1.1	win	2020-04-21	16:28:17	1	1	1	USRTblock	1	USRT	75	600000	#ff0000	10pct	1	50pct	50pct	2000	388334	390348	387982	57	390785	437	0	1	73
6.1.1	win	2020-04-21	16:28:17	1	1	1	USRTblock	1	USRT	76	600000	#ff0000	10pct	1	50pct	50pct	2000	390789	392797	390348	57	393176	379	0	1	74
6.1.1	win	2020-04-21	16:28:17	1	1	1	USRTblock	1	USRT	77	600000	#ff0000	10pct	1	50pct	50pct	3000	393180	396198	392797	57	396542	344	0	1	75
6.1.1	win	2020-04-21	16:28:17	1	1	1	USRTblock	1	USRT	78	600000	#ff0000	10pct	1	50pct	50pct	5000	396546	401564	396198	57	401913	349	0	1	76
6.1.1	win	2020-04-21	16:28:17	1	1	1	USRTblock	1	USRT	79	600000	#ff0000	10pct	1	50pct	50pct	5000	401917	406930	401564	57	407209	279	0	1	77
6.1.1	win	2020-04-21	16:28:17	1	1	1	USRTblock	1	USRT	80	600000	#ff0000	10pct	1	50pct	50pct	3000	407212	410229	406930	57	410550	321	0	1	78
6.1.1	win	2020-04-21	16:28:17	1	1	1	USRTblock	1	USRT	81	600000	#ff0000	10pct	1	50pct	50pct	2000	410554	412562	410229	57	412959	397	0	1	79
6.1.1	win	2020-04-21	16:28:17	1	1	1	USRTblock	1	USRT	82	600000	#ff0000	10pct	1	50pct	50pct	3000	412962	415978	412562	57	416309	331	0	1	80
6.1.1	win	2020-04-21	16:28:17	1	1	1	USRTblock	1	USRT	83	600000	#ff0000	10pct	1	50pct	50pct	7000	416313	423328	415978	57	423668	340	0	1	81
6.1.1	win	2020-04-21	16:28:17	1	1	1	USRTblock	1	USRT	84	600000	#ff0000	10pct	1	50pct	50pct	3000	423671	426678	423328	57	427176	498	0	1	82
6.1.1	win	2020-04-21	16:28:17	1	1	1	USRTblock	1	USRT	85	600000	#ff0000	10pct	1	50pct	50pct	8000	427180	435194	426678	57	435519	325	0	1	83
6.1.1	win	2020-04-21	16:28:17	1	1	1	USRTblock	1	USRT	86	600000	#ff0000	10pct	1	50pct	50pct	4000	435523	439543	435194	57	439952	409	0	1	84
6.1.1	win	2020-04-21	16:28:17	1	1	1	USRTblock	1	USRT	87	600000	#ff0000	10pct	1	50pct	50pct	2000	439956	441976	439543	57	442359	383	0	1	85
6.1.1	win	2020-04-21	16:28:17	1	1	1	USRTblock	1	USRT	88	600000	#ff0000	10pct	1	50pct	50pct	2000	442364	444376	441976	57	444729	353	0	1	86
6.1.1	win	2020-04-21	16:28:17	1	1	1	USRTblock	1	USRT	89	600000	#ff0000	10pct	1	50pct	50pct	3000	444732	447742	444376	57	448024	282	0	1	87
6.1.1	win	2020-04-21	16:28:17	1	1	1	USRTblock	1	USRT	90	600000	#ff0000	10pct	1	50pct	50pct	4000	448027	452042	447742	57	452384	342	0	1	88
6.1.1	win	2020-04-21	16:28:17	1	1	1	USRTblock	1	USRT	91	600000	#ff0000	10pct	1	50pct	50pct	2000	452387	454408	452042	57	454770	362	0	1	89
6.1.1	win	2020-04-21	16:28:17	1	1	1	USRTblock	1	USRT	92	600000	#ff0000	10pct	1	50pct	50pct	7000	454773	461791	454408	57	462084	293	0	1	90
6.1.1	win	2020-04-21	16:28:17	1	1	1	USRTblock	1	USRT	93	600000	#ff0000	10pct	1	50pct	50pct	8000	462087	470107	461791	57	470429	322	0	1	91
6.1.1	win	2020-04-21	16:28:17	1	1	1	USRTblock	1	USRT	94	600000	#ff0000	10pct	1	50pct	50pct	6000	470432	476440	470107	57	476766	326	0	1	92
6.1.1	win	2020-04-21	16:28:17	1	1	1	USRTblock	1	USRT	95	600000	#ff0000	10pct	1	50pct	50pct	2000	476770	478789	476440	57	479086	297	0	1	93
6.1.1	win	2020-04-21	16:28:17	1	1	1	USRTblock	1	USRT	96	600000	#ff0000	10pct	1	50pct	50pct	6000	479089	485106	478789	57	485409	303	0	1	94
6.1.1	win	2020-04-21	16:28:17	1	1	1	USRTblock	1	USRT	97	600000	#ff0000	10pct	1	50pct	50pct	4000	485412	489422	485106	57	489820	398	0	1	95
6.1.1	win	2020-04-21	16:28:17	1	1	1	USRTblock	1	USRT	98	600000	#ff0000	10pct	1	50pct	50pct	6000	489824	495837	489422	57	496227	390	0	1	96
6.1.1	win	2020-04-21	16:28:17	1	1	1	USRTblock	1	USRT	99	600000	#ff0000	10pct	1	50pct	50pct	4000	496230	500237	495837	57	500584	347	0	1	97
6.1.1	win	2020-04-21	16:28:17	1	1	1	USRTblock	1	USRT	100	600000	#ff0000	10pct	1	50pct	50pct	3000	500587	503603	500237	57	503815	212	0	1	98
6.1.1	win	2020-04-21	16:28:17	1	1	1	USRTblock	1	USRT	101	600000	#ff0000	10pct	1	50pct	50pct	2000	503819	505836	503603	57	506204	368	0	1	99
6.1.1	win	2020-04-21	16:28:17	1	1	1	USRTblock	1	USRT	102	600000	#ff0000	10pct	1	50pct	50pct	4000	506208	510220	505836	57	510547	327	0	1	100
6.1.1	win	2020-04-21	16:28:17	1	1	1	USRTblock	1	USRT	103	600000	#ff0000	10pct	1	50pct	50pct	8000	510550	518569	510220	57	518926	357	0	1	101
6.1.1	win	2020-04-21	16:28:17	1	1	1	USRTblock	1	USRT	104	600000	#ff0000	10pct	1	50pct	50pct	8000	518929	526935	518569	57	527244	309	0	1	102
6.1.1	win	2020-04-21	16:28:17	1	1	1	USRTblock	1	USRT	105	600000	#ff0000	10pct	1	50pct	50pct	7000	527248	534267	526935	57	534597	330	0	1	103
6.1.1	win	2020-04-21	16:28:17	1	1	1	USRTblock	1	USRT	106	600000	#ff0000	10pct	1	50pct	50pct	5000	534601	539616	534267	57	540012	396	0	1	104
6.1.1	win	2020-04-21	16:28:17	1	1	1	USRTblock	1	USRT	107	600000	#ff0000	10pct	1	50pct	50pct	3000	540016	543033	539616	57	543421	388	0	1	105
6.1.1	win	2020-04-21	16:28:17	1	1	1	USRTblock	1	USRT	108	600000	#ff0000	10pct	1	50pct	50pct	4000	543424	547432	543033	57	547755	323	0	1	106
6.1.1	win	2020-04-21	16:28:17	1	1	1	USRTblock	1	USRT	109	600000	#ff0000	10pct	1	50pct	50pct	2000	547758	549765	547432	57	550113	348	0	1	107
6.1.1	win	2020-04-21	16:28:17	1	1	1	USRTblock	1	USRT	110	600000	#ff0000	10pct	1	50pct	50pct	5000	550116	555131	549765	57	555454	323	0	1	108
6.1.1	win	2020-04-21	16:28:17	1	1	1	USRTblock	1	USRT	111	600000	#ff0000	10pct	1	50pct	50pct	2000	555457	557464	555131	57	557786	322	0	1	109
6.1.1	win	2020-04-21	16:28:17	1	1	1	USRTblock	1	USRT	112	600000	#ff0000	10pct	1	50pct	50pct	3000	557790	560797	557464	57	561071	274	0	1	110
6.1.1	win	2020-04-21	16:28:17	1	1	1	USRTblock	1	USRT	113	600000	#ff0000	10pct	1	50pct	50pct	6000	561075	567080	560797	57	567396	316	0	1	111
6.1.1	win	2020-04-21	16:28:17	1	1	1	USRTblock	1	USRT	114	600000	#ff0000	10pct	1	50pct	50pct	5000	567399	572413	567080	57	572842	429	0	1	112
6.1.1	win	2020-04-21	16:28:17	1	1	1	USRTblock	1	USRT	115	600000	#ff0000	10pct	1	50pct	50pct	6000	572846	578863	572413	57	579212	349	0	1	113
6.1.1	win	2020-04-21	16:28:17	1	1	1	USRTblock	1	USRT	116	600000	#ff0000	10pct	1	50pct	50pct	6000	579216	585229	578863	57	585536	307	0	1	114
6.1.1	win	2020-04-21	16:28:17	1	1	1	USRTblock	1	USRT	117	600000	#ff0000	10pct	1	50pct	50pct	7000	585540	592545	585229	57	592864	319	0	1	115
6.1.1	win	2020-04-21	16:28:17	1	1	1	USRTblock	1	USRT	118	600000	#ff0000	10pct	1	50pct	50pct	4000	592868	596877	592545	57	597234	357	0	1	116
6.1.1	win	2020-04-21	16:28:17	1	1	1	USRTblock	1	USRT	119	600000	#ff0000	10pct	1	50pct	50pct	5000	597238	-1	596877	0	597325	0	1	2	117
