build	computer.platform	date	time	subject	group	sessionid	blockcode	blocknum	trialcode	trialnum	testduration	targetcolor	targetsize	fixed	targetx	targety	stiminterval	trialStart	shape.targetcircle.timestamp	lastCircleTimestamp	response	rt_elapsed	rt	EarlyResponse	countEarlyResponses	countResponses
6.1.1	win	2020-04-21	13:45:58	1	1	1	USRTblock	1	USRT	3	600000	#ff0000	10pct	1	50pct	50pct	4000	2770	6786	2067	57	7027	241	0	0	1
6.1.1	win	2020-04-21	13:45:58	1	1	1	USRTblock	1	USRT	4	600000	#ff0000	10pct	1	50pct	50pct	2000	7040	9052	6786	57	9303	251	0	0	2
6.1.1	win	2020-04-21	13:45:58	1	1	1	USRTblock	1	USRT	5	600000	#ff0000	10pct	1	50pct	50pct	3000	9306	12319	9052	57	12546	227	0	0	3
6.1.1	win	2020-04-21	13:45:58	1	1	1	USRTblock	1	USRT	6	600000	#ff0000	10pct	1	50pct	50pct	4000	12550	16569	12319	57	16818	249	0	0	4
6.1.1	win	2020-04-21	13:45:58	1	1	1	USRTblock	1	USRT	7	600000	#ff0000	10pct	1	50pct	50pct	7000	16823	23835	16569	57	24083	248	0	0	5
6.1.1	win	2020-04-21	13:45:58	1	1	1	USRTblock	1	USRT	8	600000	#ff0000	10pct	1	50pct	50pct	3000	24086	27101	23835	57	27346	245	0	0	6
6.1.1	win	2020-04-21	13:45:58	1	1	1	USRTblock	1	USRT	9	600000	#ff0000	10pct	1	50pct	50pct	7000	27349	34367	27101	57	34610	243	0	0	7
6.1.1	win	2020-04-21	13:45:58	1	1	1	USRTblock	1	USRT	10	600000	#ff0000	10pct	1	50pct	50pct	5000	34613	39633	34367	57	39919	286	0	0	8
6.1.1	win	2020-04-21	13:45:58	1	1	1	USRTblock	1	USRT	11	600000	#ff0000	10pct	1	50pct	50pct	6000	39923	45932	39633	57	46247	315	0	0	9
6.1.1	win	2020-04-21	13:45:58	1	1	1	USRTblock	1	USRT	12	600000	#ff0000	10pct	1	50pct	50pct	5000	46251	51265	45932	57	51639	374	0	0	10
6.1.1	win	2020-04-21	13:45:58	1	1	1	USRTblock	1	USRT	13	600000	#ff0000	10pct	1	50pct	50pct	4000	51642	55648	51265	57	56006	358	0	0	11
6.1.1	win	2020-04-21	13:45:58	1	1	1	USRTblock	1	USRT	14	600000	#ff0000	10pct	1	50pct	50pct	3000	56010	59031	55648	57	59360	329	0	0	12
6.1.1	win	2020-04-21	13:45:58	1	1	1	USRTblock	1	USRT	15	600000	#ff0000	10pct	1	50pct	50pct	4000	59364	63381	59031	57	63664	283	0	0	13
6.1.1	win	2020-04-21	13:45:58	1	1	1	USRTblock	1	USRT	16	600000	#ff0000	10pct	1	50pct	50pct	7000	63668	70680	63381	57	70949	269	0	0	14
6.1.1	win	2020-04-21	13:45:58	1	1	1	USRTblock	1	USRT	17	600000	#ff0000	10pct	1	50pct	50pct	8000	70953	78963	70680	57	79279	316	0	0	15
6.1.1	win	2020-04-21	13:45:58	1	1	1	USRTblock	1	USRT	18	600000	#ff0000	10pct	1	50pct	50pct	5000	79283	84295	78963	57	84687	392	0	0	16
6.1.1	win	2020-04-21	13:45:58	1	1	1	USRTblock	1	USRT	19	600000	#ff0000	10pct	1	50pct	50pct	8000	84690	92711	84295	57	93004	293	0	0	17
6.1.1	win	2020-04-21	13:45:58	1	1	1	USRTblock	1	USRT	20	600000	#ff0000	10pct	1	50pct	50pct	4000	93008	97027	92711	57	97339	312	0	0	18
6.1.1	win	2020-04-21	13:45:58	1	1	1	USRTblock	1	USRT	21	600000	#ff0000	10pct	1	50pct	50pct	7000	97343	104360	97027	57	104628	268	0	0	19
6.1.1	win	2020-04-21	13:45:58	1	1	1	USRTblock	1	USRT	22	600000	#ff0000	10pct	1	50pct	50pct	2000	104632	106643	104360	57	107006	363	0	0	20
6.1.1	win	2020-04-21	13:45:58	1	1	1	USRTblock	1	USRT	23	600000	#ff0000	10pct	1	50pct	50pct	8000	107009	115026	106643	57	115334	308	0	0	21
6.1.1	win	2020-04-21	13:45:58	1	1	1	USRTblock	1	USRT	24	600000	#ff0000	10pct	1	50pct	50pct	2000	115338	117358	115026	57	117703	345	0	0	22
6.1.1	win	2020-04-21	13:45:58	1	1	1	USRTblock	1	USRT	25	600000	#ff0000	10pct	1	50pct	50pct	6000	117708	123724	117358	57	124074	350	0	0	23
6.1.1	win	2020-04-21	13:45:58	1	1	1	USRTblock	1	USRT	26	600000	#ff0000	10pct	1	50pct	50pct	3000	124077	127091	123724	57	127523	432	0	0	24
6.1.1	win	2020-04-21	13:45:58	1	1	1	USRTblock	1	USRT	27	600000	#ff0000	10pct	1	50pct	50pct	5000	127527	132540	127091	57	133039	499	0	0	25
6.1.1	win	2020-04-21	13:45:58	1	1	1	USRTblock	1	USRT	28	600000	#ff0000	10pct	1	50pct	50pct	5000	133043	138056	132540	57	138343	287	0	0	26
6.1.1	win	2020-04-21	13:45:58	1	1	1	USRTblock	1	USRT	29	600000	#ff0000	10pct	1	50pct	50pct	2000	138346	140356	138056	57	140704	348	0	0	27
6.1.1	win	2020-04-21	13:45:58	1	1	1	USRTblock	1	USRT	30	600000	#ff0000	10pct	1	50pct	50pct	6000	140708	146723	140356	57	147246	523	0	0	28
6.1.1	win	2020-04-21	13:45:58	1	1	1	USRTblock	1	USRT	31	600000	#ff0000	10pct	1	50pct	50pct	3000	147250	150272	146723	57	150605	333	0	0	29
6.1.1	win	2020-04-21	13:45:58	1	1	1	USRTblock	1	USRT	32	600000	#ff0000	10pct	1	50pct	50pct	7000	150609	157621	150272	57	157912	291	0	0	30
6.1.1	win	2020-04-21	13:45:58	1	1	1	USRTblock	1	USRT	33	600000	#ff0000	10pct	1	50pct	50pct	7000	157915	164937	157621	57	165259	322	0	0	31
6.1.1	win	2020-04-21	13:45:58	1	1	1	USRTblock	1	USRT	34	600000	#ff0000	10pct	1	50pct	50pct	3000	165263	168270	164937	57	168637	367	0	0	32
6.1.1	win	2020-04-21	13:45:58	1	1	1	USRTblock	1	USRT	35	600000	#ff0000	10pct	1	50pct	50pct	4000	168641	172653	168270	57	173031	378	0	0	33
6.1.1	win	2020-04-21	13:45:58	1	1	1	USRTblock	1	USRT	36	600000	#ff0000	10pct	1	50pct	50pct	3000	173035	176052	172653	57	176367	315	0	0	34
6.1.1	win	2020-04-21	13:45:58	1	1	1	USRTblock	1	USRT	37	600000	#ff0000	10pct	1	50pct	50pct	6000	176370	182385	176052	57	182693	308	0	0	35
6.1.1	win	2020-04-21	13:45:58	1	1	1	USRTblock	1	USRT	38	600000	#ff0000	10pct	1	50pct	50pct	2000	182697	184718	182385	57	185224	506	0	0	36
6.1.1	win	2020-04-21	13:45:58	1	1	1	USRTblock	1	USRT	39	600000	#ff0000	10pct	1	50pct	50pct	4000	185228	189235	184718	57	189610	375	0	0	37
6.1.1	win	2020-04-21	13:45:58	1	1	1	USRTblock	1	USRT	40	600000	#ff0000	10pct	1	50pct	50pct	6000	189613	195634	189235	57	196015	381	0	0	38
6.1.1	win	2020-04-21	13:45:58	1	1	1	USRTblock	1	USRT	41	600000	#ff0000	10pct	1	50pct	50pct	8000	196019	204034	195634	57	204388	354	0	0	39
6.1.1	win	2020-04-21	13:45:58	1	1	1	USRTblock	1	USRT	42	600000	#ff0000	10pct	1	50pct	50pct	2000	204392	206399	204034	57	206839	440	0	0	40
6.1.1	win	2020-04-21	13:45:58	1	1	1	USRTblock	1	USRT	43	600000	#ff0000	10pct	1	50pct	50pct	6000	206843	212849	206399	57	213154	305	0	0	41
6.1.1	win	2020-04-21	13:45:58	1	1	1	USRTblock	1	USRT	44	600000	#ff0000	10pct	1	50pct	50pct	7000	213158	220165	212849	57	220514	349	0	0	42
6.1.1	win	2020-04-21	13:45:58	1	1	1	USRTblock	1	USRT	45	600000	#ff0000	10pct	1	50pct	50pct	3000	220518	223531	220165	57	224158	627	0	0	43
6.1.1	win	2020-04-21	13:45:58	1	1	1	USRTblock	1	USRT	46	600000	#ff0000	10pct	1	50pct	50pct	5000	224161	229181	223531	57	229502	321	0	0	44
6.1.1	win	2020-04-21	13:45:58	1	1	1	USRTblock	1	USRT	47	600000	#ff0000	10pct	1	50pct	50pct	7000	229508	236531	229181	57	236898	367	0	0	45
6.1.1	win	2020-04-21	13:45:58	1	1	1	USRTblock	1	USRT	48	600000	#ff0000	10pct	1	50pct	50pct	8000	236902	244915	236531	57	245270	355	0	0	46
6.1.1	win	2020-04-21	13:45:58	1	1	1	USRTblock	1	USRT	49	600000	#ff0000	10pct	1	50pct	50pct	3000	245274	248295	244915	57	248720	425	0	0	47
6.1.1	win	2020-04-21	13:45:58	1	1	1	USRTblock	1	USRT	50	600000	#ff0000	10pct	1	50pct	50pct	4000	248724	252745	248295	57	253090	345	0	0	48
6.1.1	win	2020-04-21	13:45:58	1	1	1	USRTblock	1	USRT	51	600000	#ff0000	10pct	1	50pct	50pct	4000	253095	257111	252745	57	257455	344	0	0	49
6.1.1	win	2020-04-21	13:45:58	1	1	1	USRTblock	1	USRT	52	600000	#ff0000	10pct	1	50pct	50pct	3000	257458	260477	257111	57	260822	345	0	0	50
6.1.1	win	2020-04-21	13:45:58	1	1	1	USRTblock	1	USRT	53	600000	#ff0000	10pct	1	50pct	50pct	2000	260826	262843	260477	57	263236	393	0	0	51
6.1.1	win	2020-04-21	13:45:58	1	1	1	USRTblock	1	USRT	54	600000	#ff0000	10pct	1	50pct	50pct	2000	263240	265260	262843	57	265578	318	0	0	52
6.1.1	win	2020-04-21	13:45:58	1	1	1	USRTblock	1	USRT	55	600000	#ff0000	10pct	1	50pct	50pct	5000	265582	270593	265260	57	271053	460	0	0	53
6.1.1	win	2020-04-21	13:45:58	1	1	1	USRTblock	1	USRT	56	600000	#ff0000	10pct	1	50pct	50pct	8000	271056	279076	270593	57	279438	362	0	0	54
6.1.1	win	2020-04-21	13:45:58	1	1	1	USRTblock	1	USRT	57	600000	#ff0000	10pct	1	50pct	50pct	8000	279441	287458	279076	57	287848	390	0	0	55
6.1.1	win	2020-04-21	13:45:58	1	1	1	USRTblock	1	USRT	58	600000	#ff0000	10pct	1	50pct	50pct	8000	287852	295858	287458	57	296262	404	0	0	56
6.1.1	win	2020-04-21	13:45:58	1	1	1	USRTblock	1	USRT	59	600000	#ff0000	10pct	1	50pct	50pct	6000	296266	302274	295858	57	302574	300	0	0	57
6.1.1	win	2020-04-21	13:45:58	1	1	1	USRTblock	1	USRT	60	600000	#ff0000	10pct	1	50pct	50pct	3000	302578	305589	302274	57	306044	455	0	0	58
6.1.1	win	2020-04-21	13:45:58	1	1	1	USRTblock	1	USRT	61	600000	#ff0000	10pct	1	50pct	50pct	7000	306047	313056	305589	57	313377	321	0	0	59
6.1.1	win	2020-04-21	13:45:58	1	1	1	USRTblock	1	USRT	62	600000	#ff0000	10pct	1	50pct	50pct	6000	313381	319388	313056	57	319824	436	0	0	60
6.1.1	win	2020-04-21	13:45:58	1	1	1	USRTblock	1	USRT	63	600000	#ff0000	10pct	1	50pct	50pct	7000	319827	326838	319388	57	327186	348	0	0	61
6.1.1	win	2020-04-21	13:45:58	1	1	1	USRTblock	1	USRT	64	600000	#ff0000	10pct	1	50pct	50pct	4000	327189	331204	326838	57	331556	352	0	0	62
6.1.1	win	2020-04-21	13:45:58	1	1	1	USRTblock	1	USRT	65	600000	#ff0000	10pct	1	50pct	50pct	5000	331559	336570	331204	57	336983	413	0	0	63
6.1.1	win	2020-04-21	13:45:58	1	1	1	USRTblock	1	USRT	66	600000	#ff0000	10pct	1	50pct	50pct	6000	336986	343003	336570	57	343296	293	0	0	64
6.1.1	win	2020-04-21	13:45:58	1	1	1	USRTblock	1	USRT	67	600000	#ff0000	10pct	1	50pct	50pct	7000	343300	350319	343003	57	350738	419	0	0	65
6.1.1	win	2020-04-21	13:45:58	1	1	1	USRTblock	1	USRT	68	600000	#ff0000	10pct	1	50pct	50pct	3000	350741	353751	350319	57	354119	368	0	0	66
6.1.1	win	2020-04-21	13:45:58	1	1	1	USRTblock	1	USRT	69	600000	#ff0000	10pct	1	50pct	50pct	2000	354123	356134	353751	57	356701	567	0	0	67
6.1.1	win	2020-04-21	13:45:58	1	1	1	USRTblock	1	USRT	70	600000	#ff0000	10pct	1	50pct	50pct	5000	356704	361717	356134	57	362219	502	0	0	68
6.1.1	win	2020-04-21	13:45:58	1	1	1	USRTblock	1	USRT	71	600000	#ff0000	10pct	1	50pct	50pct	4000	362222	366234	361717	57	366668	434	0	0	69
6.1.1	win	2020-04-21	13:45:58	1	1	1	USRTblock	1	USRT	72	600000	#ff0000	10pct	1	50pct	50pct	5000	366672	-1	366234	57	368319	0	1	1	70
6.1.1	win	2020-04-21	13:45:58	1	1	1	USRTblock	1	USRT	73	600000	#ff0000	10pct	1	50pct	50pct	5000	368324	373333	-1	57	373739	406	0	1	71
6.1.1	win	2020-04-21	13:45:58	1	1	1	USRTblock	1	USRT	74	600000	#ff0000	10pct	1	50pct	50pct	3000	373742	376749	373333	57	377095	346	0	1	72
6.1.1	win	2020-04-21	13:45:58	1	1	1	USRTblock	1	USRT	75	600000	#ff0000	10pct	1	50pct	50pct	2000	377099	379115	376749	57	379558	443	0	1	73
6.1.1	win	2020-04-21	13:45:58	1	1	1	USRTblock	1	USRT	76	600000	#ff0000	10pct	1	50pct	50pct	4000	379561	383582	379115	57	383924	342	0	1	74
6.1.1	win	2020-04-21	13:45:58	1	1	1	USRTblock	1	USRT	77	600000	#ff0000	10pct	1	50pct	50pct	2000	383928	385948	383582	57	386293	345	0	1	75
6.1.1	win	2020-04-21	13:45:58	1	1	1	USRTblock	1	USRT	78	600000	#ff0000	10pct	1	50pct	50pct	7000	386296	393315	385948	57	393781	466	0	1	76
6.1.1	win	2020-04-21	13:45:58	1	1	1	USRTblock	1	USRT	79	600000	#ff0000	10pct	1	50pct	50pct	8000	393784	401797	393315	57	402145	348	0	1	77
6.1.1	win	2020-04-21	13:45:58	1	1	1	USRTblock	1	USRT	80	600000	#ff0000	10pct	1	50pct	50pct	5000	402148	407163	401797	57	407436	273	0	1	78
6.1.1	win	2020-04-21	13:45:58	1	1	1	USRTblock	1	USRT	81	600000	#ff0000	10pct	1	50pct	50pct	2000	407439	409445	407163	57	410030	585	0	1	79
6.1.1	win	2020-04-21	13:45:58	1	1	1	USRTblock	1	USRT	82	600000	#ff0000	10pct	1	50pct	50pct	4000	410033	414045	409445	57	414357	312	0	1	80
6.1.1	win	2020-04-21	13:45:58	1	1	1	USRTblock	1	USRT	83	600000	#ff0000	10pct	1	50pct	50pct	2000	414360	416379	414045	57	416828	449	0	1	81
6.1.1	win	2020-04-21	13:45:58	1	1	1	USRTblock	1	USRT	84	600000	#ff0000	10pct	1	50pct	50pct	3000	416832	419845	416379	57	420114	269	0	1	82
6.1.1	win	2020-04-21	13:45:58	1	1	1	USRTblock	1	USRT	85	600000	#ff0000	10pct	1	50pct	50pct	6000	420117	426128	419845	57	426440	312	0	1	83
6.1.1	win	2020-04-21	13:45:58	1	1	1	USRTblock	1	USRT	86	600000	#ff0000	10pct	1	50pct	50pct	2000	426444	428461	426128	57	428803	342	0	1	84
6.1.1	win	2020-04-21	13:45:58	1	1	1	USRTblock	1	USRT	87	600000	#ff0000	10pct	1	50pct	50pct	2000	428806	430827	428461	57	431232	405	0	1	85
6.1.1	win	2020-04-21	13:45:58	1	1	1	USRTblock	1	USRT	88	600000	#ff0000	10pct	1	50pct	50pct	7000	431235	438243	430827	57	438554	311	0	1	86
6.1.1	win	2020-04-21	13:45:58	1	1	1	USRTblock	1	USRT	89	600000	#ff0000	10pct	1	50pct	50pct	8000	438557	446576	438243	57	446977	401	0	1	87
6.1.1	win	2020-04-21	13:45:58	1	1	1	USRTblock	1	USRT	90	600000	#ff0000	10pct	1	50pct	50pct	5000	446981	451992	446576	57	452433	441	0	1	88
6.1.1	win	2020-04-21	13:45:58	1	1	1	USRTblock	1	USRT	91	600000	#ff0000	10pct	1	50pct	50pct	5000	452436	457441	451992	57	458049	608	0	1	89
6.1.1	win	2020-04-21	13:45:58	1	1	1	USRTblock	1	USRT	92	600000	#ff0000	10pct	1	50pct	50pct	7000	458053	465058	457441	57	465585	527	0	1	90
6.1.1	win	2020-04-21	13:45:58	1	1	1	USRTblock	1	USRT	93	600000	#ff0000	10pct	1	50pct	50pct	2000	465588	467607	465058	57	468128	521	0	1	91
6.1.1	win	2020-04-21	13:45:58	1	1	1	USRTblock	1	USRT	94	600000	#ff0000	10pct	1	50pct	50pct	2000	468133	470140	467607	57	470547	407	0	1	92
6.1.1	win	2020-04-21	13:45:58	1	1	1	USRTblock	1	USRT	95	600000	#ff0000	10pct	1	50pct	50pct	6000	470551	476556	470140	57	476921	365	0	1	93
6.1.1	win	2020-04-21	13:45:58	1	1	1	USRTblock	1	USRT	96	600000	#ff0000	10pct	1	50pct	50pct	6000	476924	482939	476556	57	483328	389	0	1	94
6.1.1	win	2020-04-21	13:45:58	1	1	1	USRTblock	1	USRT	97	600000	#ff0000	10pct	1	50pct	50pct	8000	483332	491338	482939	57	491822	484	0	1	95
6.1.1	win	2020-04-21	13:45:58	1	1	1	USRTblock	1	USRT	98	600000	#ff0000	10pct	1	50pct	50pct	6000	491826	497837	491338	57	498175	338	0	1	96
6.1.1	win	2020-04-21	13:45:58	1	1	1	USRTblock	1	USRT	99	600000	#ff0000	10pct	1	50pct	50pct	4000	498179	502187	497837	57	502655	468	0	1	97
6.1.1	win	2020-04-21	13:45:58	1	1	1	USRTblock	1	USRT	100	600000	#ff0000	10pct	1	50pct	50pct	6000	502659	508670	502187	57	509071	401	0	1	98
6.1.1	win	2020-04-21	13:45:58	1	1	1	USRTblock	1	USRT	101	600000	#ff0000	10pct	1	50pct	50pct	3000	509076	512086	508670	57	512519	433	0	1	99
6.1.1	win	2020-04-21	13:45:58	1	1	1	USRTblock	1	USRT	102	600000	#ff0000	10pct	1	50pct	50pct	5000	512522	517535	512086	57	517986	451	0	1	100
6.1.1	win	2020-04-21	13:45:58	1	1	1	USRTblock	1	USRT	103	600000	#ff0000	10pct	1	50pct	50pct	7000	517990	525001	517535	57	525531	530	0	1	101
6.1.1	win	2020-04-21	13:45:58	1	1	1	USRTblock	1	USRT	104	600000	#ff0000	10pct	1	50pct	50pct	5000	525535	530550	525001	57	530898	348	0	1	102
6.1.1	win	2020-04-21	13:45:58	1	1	1	USRTblock	1	USRT	105	600000	#ff0000	10pct	1	50pct	50pct	2000	530901	532916	530550	57	533328	412	0	1	103
6.1.1	win	2020-04-21	13:45:58	1	1	1	USRTblock	1	USRT	106	600000	#ff0000	10pct	1	50pct	50pct	2000	533332	535350	532916	57	535750	400	0	1	104
6.1.1	win	2020-04-21	13:45:58	1	1	1	USRTblock	1	USRT	107	600000	#ff0000	10pct	1	50pct	50pct	6000	535753	541766	535350	57	542095	329	0	1	105
6.1.1	win	2020-04-21	13:45:58	1	1	1	USRTblock	1	USRT	108	600000	#ff0000	10pct	1	50pct	50pct	4000	542099	546116	541766	57	546452	336	0	1	106
6.1.1	win	2020-04-21	13:45:58	1	1	1	USRTblock	1	USRT	109	600000	#ff0000	10pct	1	50pct	50pct	6000	546456	552465	546116	57	552715	250	0	1	107
6.1.1	win	2020-04-21	13:45:58	1	1	1	USRTblock	1	USRT	110	600000	#ff0000	10pct	1	50pct	50pct	5000	552718	557732	552465	57	558005	273	0	1	108
6.1.1	win	2020-04-21	13:45:58	1	1	1	USRTblock	1	USRT	111	600000	#ff0000	10pct	1	50pct	50pct	5000	558008	563014	557732	57	563459	445	0	1	109
6.1.1	win	2020-04-21	13:45:58	1	1	1	USRTblock	1	USRT	112	600000	#ff0000	10pct	1	50pct	50pct	8000	563463	571480	563014	57	571981	501	0	1	110
6.1.1	win	2020-04-21	13:45:58	1	1	1	USRTblock	1	USRT	113	600000	#ff0000	10pct	1	50pct	50pct	2000	571984	573996	571480	57	574385	389	0	1	111
6.1.1	win	2020-04-21	13:45:58	1	1	1	USRTblock	1	USRT	114	600000	#ff0000	10pct	1	50pct	50pct	3000	574389	577396	573996	57	577814	418	0	1	112
6.1.1	win	2020-04-21	13:45:58	1	1	1	USRTblock	1	USRT	115	600000	#ff0000	10pct	1	50pct	50pct	6000	577818	583828	577396	57	584210	382	0	1	113
6.1.1	win	2020-04-21	13:45:58	1	1	1	USRTblock	1	USRT	116	600000	#ff0000	10pct	1	50pct	50pct	8000	584231	592245	583828	57	592533	288	0	1	114
6.1.1	win	2020-04-21	13:45:58	1	1	1	USRTblock	1	USRT	117	600000	#ff0000	10pct	1	50pct	50pct	3000	592536	595544	592245	57	595920	376	0	1	115
6.1.1	win	2020-04-21	13:45:58	1	1	1	USRTblock	1	USRT	118	600000	#ff0000	10pct	1	50pct	50pct	5000	595924	600943	595544	0	596045	-4898	0	1	116
