build	computer.platform	date	time	subject	group	sessionid	blockcode	blocknum	trialcode	trialnum	testduration	targetcolor	targetsize	fixed	targetx	targety	stiminterval	trialStart	shape.targetcircle.timestamp	lastCircleTimestamp	response	rt_elapsed	rt	EarlyResponse	countEarlyResponses	countResponses
6.1.1	win	2020-04-21	13:06:24	1	1	1	USRTblock	1	USRT	3	600000	#ff0000	10pct	1	50pct	50pct	6000	3268	9282	2546	57	9527	245	0	0	1
6.1.1	win	2020-04-21	13:06:24	1	1	1	USRTblock	1	USRT	4	600000	#ff0000	10pct	1	50pct	50pct	8000	9547	17564	9282	57	17805	241	0	0	2
6.1.1	win	2020-04-21	13:06:24	1	1	1	USRTblock	1	USRT	5	600000	#ff0000	10pct	1	50pct	50pct	6000	17809	23813	17564	57	24078	265	0	0	3
6.1.1	win	2020-04-21	13:06:24	1	1	1	USRTblock	1	USRT	6	600000	#ff0000	10pct	1	50pct	50pct	8000	24082	32097	23813	57	32386	289	0	0	4
6.1.1	win	2020-04-21	13:06:24	1	1	1	USRTblock	1	USRT	7	600000	#ff0000	10pct	1	50pct	50pct	3000	32389	35395	32097	57	35704	309	0	0	5
6.1.1	win	2020-04-21	13:06:24	1	1	1	USRTblock	1	USRT	8	600000	#ff0000	10pct	1	50pct	50pct	5000	35707	40728	35395	57	41015	287	0	0	6
6.1.1	win	2020-04-21	13:06:24	1	1	1	USRTblock	1	USRT	9	600000	#ff0000	10pct	1	50pct	50pct	5000	41019	46028	40728	57	46261	233	0	0	7
6.1.1	win	2020-04-21	13:06:24	1	1	1	USRTblock	1	USRT	10	600000	#ff0000	10pct	1	50pct	50pct	2000	46265	48277	46028	57	48568	291	0	0	8
6.1.1	win	2020-04-21	13:06:24	1	1	1	USRTblock	1	USRT	11	600000	#ff0000	10pct	1	50pct	50pct	7000	48571	55577	48277	57	55905	328	0	0	9
6.1.1	win	2020-04-21	13:06:24	1	1	1	USRTblock	1	USRT	12	600000	#ff0000	10pct	1	50pct	50pct	6000	55908	61926	55577	57	62206	280	0	0	10
6.1.1	win	2020-04-21	13:06:24	1	1	1	USRTblock	1	USRT	13	600000	#ff0000	10pct	1	50pct	50pct	6000	62209	68226	61926	57	68499	273	0	0	11
6.1.1	win	2020-04-21	13:06:24	1	1	1	USRTblock	1	USRT	14	600000	#ff0000	10pct	1	50pct	50pct	5000	68503	73525	68226	57	73775	250	0	0	12
6.1.1	win	2020-04-21	13:06:24	1	1	1	USRTblock	1	USRT	15	600000	#ff0000	10pct	1	50pct	50pct	7000	73778	80791	73525	57	81050	259	0	0	13
6.1.1	win	2020-04-21	13:06:24	1	1	1	USRTblock	1	USRT	16	600000	#ff0000	10pct	1	50pct	50pct	8000	81053	89074	80791	57	89349	275	0	0	14
6.1.1	win	2020-04-21	13:06:24	1	1	1	USRTblock	1	USRT	17	600000	#ff0000	10pct	1	50pct	50pct	5000	89352	94373	89074	57	94658	285	0	0	15
6.1.1	win	2020-04-21	13:06:24	1	1	1	USRTblock	1	USRT	18	600000	#ff0000	10pct	1	50pct	50pct	7000	94661	101673	94373	57	101963	290	0	0	16
6.1.1	win	2020-04-21	13:06:24	1	1	1	USRTblock	1	USRT	19	600000	#ff0000	10pct	1	50pct	50pct	2000	101966	103972	101673	57	104286	314	0	0	17
6.1.1	win	2020-04-21	13:06:24	1	1	1	USRTblock	1	USRT	20	600000	#ff0000	10pct	1	50pct	50pct	7000	104290	111305	103972	57	111577	272	0	0	18
6.1.1	win	2020-04-21	13:06:24	1	1	1	USRTblock	1	USRT	21	600000	#ff0000	10pct	1	50pct	50pct	6000	111581	117587	111305	57	117881	294	0	0	19
6.1.1	win	2020-04-21	13:06:24	1	1	1	USRTblock	1	USRT	22	600000	#ff0000	10pct	1	50pct	50pct	4000	117885	121904	117587	57	122290	386	0	0	20
6.1.1	win	2020-04-21	13:06:24	1	1	1	USRTblock	1	USRT	23	600000	#ff0000	10pct	1	50pct	50pct	8000	122293	130303	121904	57	130582	279	0	0	21
6.1.1	win	2020-04-21	13:06:24	1	1	1	USRTblock	1	USRT	24	600000	#ff0000	10pct	1	50pct	50pct	6000	130586	136602	130303	57	136933	331	0	0	22
6.1.1	win	2020-04-21	13:06:24	1	1	1	USRTblock	1	USRT	25	600000	#ff0000	10pct	1	50pct	50pct	2000	136937	138952	136602	57	139291	339	0	0	23
6.1.1	win	2020-04-21	13:06:24	1	1	1	USRTblock	1	USRT	26	600000	#ff0000	10pct	1	50pct	50pct	7000	139294	146302	138952	57	146584	282	0	0	24
6.1.1	win	2020-04-21	13:06:24	1	1	1	USRTblock	1	USRT	27	600000	#ff0000	10pct	1	50pct	50pct	5000	146587	151601	146302	57	151864	263	0	0	25
6.1.1	win	2020-04-21	13:06:24	1	1	1	USRTblock	1	USRT	28	600000	#ff0000	10pct	1	50pct	50pct	6000	151867	157883	151601	57	158166	283	0	0	26
6.1.1	win	2020-04-21	13:06:24	1	1	1	USRTblock	1	USRT	29	600000	#ff0000	10pct	1	50pct	50pct	2000	158169	160183	157883	57	160572	389	0	0	27
6.1.1	win	2020-04-21	13:06:24	1	1	1	USRTblock	1	USRT	30	600000	#ff0000	10pct	1	50pct	50pct	7000	160575	167583	160183	57	167908	325	0	0	28
6.1.1	win	2020-04-21	13:06:24	1	1	1	USRTblock	1	USRT	31	600000	#ff0000	10pct	1	50pct	50pct	8000	167912	175932	167583	57	176222	290	0	0	29
6.1.1	win	2020-04-21	13:06:24	1	1	1	USRTblock	1	USRT	32	600000	#ff0000	10pct	1	50pct	50pct	3000	176225	179231	175932	57	179542	311	0	0	30
6.1.1	win	2020-04-21	13:06:24	1	1	1	USRTblock	1	USRT	33	600000	#ff0000	10pct	1	50pct	50pct	2000	179546	181564	179231	57	181905	341	0	0	31
6.1.1	win	2020-04-21	13:06:24	1	1	1	USRTblock	1	USRT	34	600000	#ff0000	10pct	1	50pct	50pct	4000	181909	185914	181564	57	186203	289	0	0	32
6.1.1	win	2020-04-21	13:06:24	1	1	1	USRTblock	1	USRT	35	600000	#ff0000	10pct	1	50pct	50pct	8000	186206	194214	185914	57	194619	405	0	0	33
6.1.1	win	2020-04-21	13:06:24	1	1	1	USRTblock	1	USRT	36	600000	#ff0000	10pct	1	50pct	50pct	4000	194623	198629	194214	57	198935	306	0	0	34
6.1.1	win	2020-04-21	13:06:24	1	1	1	USRTblock	1	USRT	37	600000	#ff0000	10pct	1	50pct	50pct	2000	198939	200945	198629	57	201374	429	0	0	35
6.1.1	win	2020-04-21	13:06:24	1	1	1	USRTblock	1	USRT	38	600000	#ff0000	10pct	1	50pct	50pct	3000	201377	204395	200945	57	204661	266	0	0	36
6.1.1	win	2020-04-21	13:06:24	1	1	1	USRTblock	1	USRT	39	600000	#ff0000	10pct	1	50pct	50pct	5000	204665	209678	204395	57	209916	238	0	0	37
6.1.1	win	2020-04-21	13:06:24	1	1	1	USRTblock	1	USRT	40	600000	#ff0000	10pct	1	50pct	50pct	2000	209920	211927	209678	57	212406	479	0	0	38
6.1.1	win	2020-04-21	13:06:24	1	1	1	USRTblock	1	USRT	41	600000	#ff0000	10pct	1	50pct	50pct	7000	212409	219427	211927	57	219668	241	0	0	39
6.1.1	win	2020-04-21	13:06:24	1	1	1	USRTblock	1	USRT	42	600000	#ff0000	10pct	1	50pct	50pct	5000	219671	224677	219427	57	225007	330	0	0	40
6.1.1	win	2020-04-21	13:06:24	1	1	1	USRTblock	1	USRT	43	600000	#ff0000	10pct	1	50pct	50pct	4000	225010	229026	224677	57	229313	287	0	0	41
6.1.1	win	2020-04-21	13:06:24	1	1	1	USRTblock	1	USRT	44	600000	#ff0000	10pct	1	50pct	50pct	6000	229317	235325	229026	57	235599	274	0	0	42
6.1.1	win	2020-04-21	13:06:24	1	1	1	USRTblock	1	USRT	45	600000	#ff0000	10pct	1	50pct	50pct	5000	235602	240609	235325	57	240892	283	0	0	43
6.1.1	win	2020-04-21	13:06:24	1	1	1	USRTblock	1	USRT	46	600000	#ff0000	10pct	1	50pct	50pct	5000	240895	245908	240609	57	246164	256	0	0	44
6.1.1	win	2020-04-21	13:06:24	1	1	1	USRTblock	1	USRT	47	600000	#ff0000	10pct	1	50pct	50pct	4000	246167	250174	245908	57	250436	262	0	0	45
6.1.1	win	2020-04-21	13:06:24	1	1	1	USRTblock	1	USRT	48	600000	#ff0000	10pct	1	50pct	50pct	3000	250440	253457	250174	57	253755	298	0	0	46
6.1.1	win	2020-04-21	13:06:24	1	1	1	USRTblock	1	USRT	49	600000	#ff0000	10pct	1	50pct	50pct	6000	253759	259773	253457	57	260022	249	0	0	47
6.1.1	win	2020-04-21	13:06:24	1	1	1	USRTblock	1	USRT	50	600000	#ff0000	10pct	1	50pct	50pct	4000	260025	264039	259773	57	264350	311	0	0	48
6.1.1	win	2020-04-21	13:06:24	1	1	1	USRTblock	1	USRT	51	600000	#ff0000	10pct	1	50pct	50pct	7000	264353	271372	264039	57	271689	317	0	0	49
6.1.1	win	2020-04-21	13:06:24	1	1	1	USRTblock	1	USRT	52	600000	#ff0000	10pct	1	50pct	50pct	3000	271693	274705	271372	57	275028	323	0	0	50
6.1.1	win	2020-04-21	13:06:24	1	1	1	USRTblock	1	USRT	53	600000	#ff0000	10pct	1	50pct	50pct	8000	275031	283038	274705	57	283350	312	0	0	51
6.1.1	win	2020-04-21	13:06:24	1	1	1	USRTblock	1	USRT	54	600000	#ff0000	10pct	1	50pct	50pct	7000	283354	290370	283038	57	290654	284	0	0	52
6.1.1	win	2020-04-21	13:06:24	1	1	1	USRTblock	1	USRT	55	600000	#ff0000	10pct	1	50pct	50pct	7000	290658	297669	290370	57	297974	305	0	0	53
6.1.1	win	2020-04-21	13:06:24	1	1	1	USRTblock	1	USRT	56	600000	#ff0000	10pct	1	50pct	50pct	6000	297978	303986	297669	57	304309	323	0	0	54
6.1.1	win	2020-04-21	13:06:24	1	1	1	USRTblock	1	USRT	57	600000	#ff0000	10pct	1	50pct	50pct	3000	304312	307318	303986	57	307617	299	0	0	55
6.1.1	win	2020-04-21	13:06:24	1	1	1	USRTblock	1	USRT	58	600000	#ff0000	10pct	1	50pct	50pct	8000	307621	315634	307318	57	315881	247	0	0	56
6.1.1	win	2020-04-21	13:06:24	1	1	1	USRTblock	1	USRT	59	600000	#ff0000	10pct	1	50pct	50pct	8000	315884	323900	315634	57	324190	290	0	0	57
6.1.1	win	2020-04-21	13:06:24	1	1	1	USRTblock	1	USRT	60	600000	#ff0000	10pct	1	50pct	50pct	3000	324194	327200	323900	57	327494	294	0	0	58
6.1.1	win	2020-04-21	13:06:24	1	1	1	USRTblock	1	USRT	61	600000	#ff0000	10pct	1	50pct	50pct	2000	327497	329516	327200	57	329818	302	0	0	59
6.1.1	win	2020-04-21	13:06:24	1	1	1	USRTblock	1	USRT	62	600000	#ff0000	10pct	1	50pct	50pct	5000	329821	334833	329516	57	335117	284	0	0	60
6.1.1	win	2020-04-21	13:06:24	1	1	1	USRTblock	1	USRT	63	600000	#ff0000	10pct	1	50pct	50pct	4000	335120	339132	334833	57	339427	295	0	0	61
6.1.1	win	2020-04-21	13:06:24	1	1	1	USRTblock	1	USRT	64	600000	#ff0000	10pct	1	50pct	50pct	3000	339431	342448	339132	57	342871	423	0	0	62
6.1.1	win	2020-04-21	13:06:24	1	1	1	USRTblock	1	USRT	65	600000	#ff0000	10pct	1	50pct	50pct	3000	342874	345881	342448	57	346256	375	0	0	63
6.1.1	win	2020-04-21	13:06:24	1	1	1	USRTblock	1	USRT	66	600000	#ff0000	10pct	1	50pct	50pct	8000	346259	354264	345881	57	354622	358	0	0	64
6.1.1	win	2020-04-21	13:06:24	1	1	1	USRTblock	1	USRT	67	600000	#ff0000	10pct	1	50pct	50pct	3000	354627	357646	354264	57	357976	330	0	0	65
6.1.1	win	2020-04-21	13:06:24	1	1	1	USRTblock	1	USRT	68	600000	#ff0000	10pct	1	50pct	50pct	2000	357980	359996	357646	57	360305	309	0	0	66
6.1.1	win	2020-04-21	13:06:24	1	1	1	USRTblock	1	USRT	69	600000	#ff0000	10pct	1	50pct	50pct	5000	360308	365312	359996	57	365594	282	0	0	67
6.1.1	win	2020-04-21	13:06:24	1	1	1	USRTblock	1	USRT	70	600000	#ff0000	10pct	1	50pct	50pct	3000	365598	368612	365312	57	368963	351	0	0	68
6.1.1	win	2020-04-21	13:06:24	1	1	1	USRTblock	1	USRT	71	600000	#ff0000	10pct	1	50pct	50pct	7000	368967	375978	368612	57	376248	270	0	0	69
6.1.1	win	2020-04-21	13:06:24	1	1	1	USRTblock	1	USRT	72	600000	#ff0000	10pct	1	50pct	50pct	3000	376251	379261	375978	57	379569	308	0	0	70
6.1.1	win	2020-04-21	13:06:24	1	1	1	USRTblock	1	USRT	73	600000	#ff0000	10pct	1	50pct	50pct	4000	379572	383578	379261	57	383931	353	0	0	71
6.1.1	win	2020-04-21	13:06:24	1	1	1	USRTblock	1	USRT	74	600000	#ff0000	10pct	1	50pct	50pct	5000	383934	388943	383578	57	389253	310	0	0	72
6.1.1	win	2020-04-21	13:06:24	1	1	1	USRTblock	1	USRT	75	600000	#ff0000	10pct	1	50pct	50pct	7000	389256	396276	388943	57	396680	404	0	0	73
6.1.1	win	2020-04-21	13:06:24	1	1	1	USRTblock	1	USRT	76	600000	#ff0000	10pct	1	50pct	50pct	5000	396683	401693	396276	57	402105	412	0	0	74
6.1.1	win	2020-04-21	13:06:24	1	1	1	USRTblock	1	USRT	77	600000	#ff0000	10pct	1	50pct	50pct	3000	402108	405124	401693	57	405470	346	0	0	75
6.1.1	win	2020-04-21	13:06:24	1	1	1	USRTblock	1	USRT	78	600000	#ff0000	10pct	1	50pct	50pct	3000	405474	408491	405124	57	408815	324	0	0	76
6.1.1	win	2020-04-21	13:06:24	1	1	1	USRTblock	1	USRT	79	600000	#ff0000	10pct	1	50pct	50pct	8000	408819	416824	408491	57	417115	291	0	0	77
6.1.1	win	2020-04-21	13:06:24	1	1	1	USRTblock	1	USRT	80	600000	#ff0000	10pct	1	50pct	50pct	2000	417119	419123	416824	57	419482	359	0	0	78
6.1.1	win	2020-04-21	13:06:24	1	1	1	USRTblock	1	USRT	81	600000	#ff0000	10pct	1	50pct	50pct	3000	419485	422490	419123	57	422766	276	0	0	79
6.1.1	win	2020-04-21	13:06:24	1	1	1	USRTblock	1	USRT	82	600000	#ff0000	10pct	1	50pct	50pct	3000	422769	425790	422490	57	426041	251	0	0	80
6.1.1	win	2020-04-21	13:06:24	1	1	1	USRTblock	1	USRT	83	600000	#ff0000	10pct	1	50pct	50pct	4000	426045	430055	425790	57	430339	284	0	0	81
6.1.1	win	2020-04-21	13:06:24	1	1	1	USRTblock	1	USRT	84	600000	#ff0000	10pct	1	50pct	50pct	7000	430343	437356	430055	57	437619	263	0	0	82
6.1.1	win	2020-04-21	13:06:24	1	1	1	USRTblock	1	USRT	85	600000	#ff0000	10pct	1	50pct	50pct	7000	437623	444638	437356	57	444917	279	0	0	83
6.1.1	win	2020-04-21	13:06:24	1	1	1	USRTblock	1	USRT	86	600000	#ff0000	10pct	1	50pct	50pct	2000	444921	446937	444638	57	447311	374	0	0	84
6.1.1	win	2020-04-21	13:06:24	1	1	1	USRTblock	1	USRT	87	600000	#ff0000	10pct	1	50pct	50pct	2000	447315	449320	446937	57	449634	314	0	0	85
6.1.1	win	2020-04-21	13:06:24	1	1	1	USRTblock	1	USRT	88	600000	#ff0000	10pct	1	50pct	50pct	8000	449638	457654	449320	57	457922	268	0	0	86
6.1.1	win	2020-04-21	13:06:24	1	1	1	USRTblock	1	USRT	89	600000	#ff0000	10pct	1	50pct	50pct	2000	457926	459936	457654	57	460206	270	0	0	87
6.1.1	win	2020-04-21	13:06:24	1	1	1	USRTblock	1	USRT	90	600000	#ff0000	10pct	1	50pct	50pct	4000	460209	464219	459936	57	464455	236	0	0	88
6.1.1	win	2020-04-21	13:06:24	1	1	1	USRTblock	1	USRT	91	600000	#ff0000	10pct	1	50pct	50pct	5000	464458	469469	464219	57	469775	306	0	0	89
6.1.1	win	2020-04-21	13:06:24	1	1	1	USRTblock	1	USRT	92	600000	#ff0000	10pct	1	50pct	50pct	7000	469778	476784	469469	57	477044	260	0	0	90
6.1.1	win	2020-04-21	13:06:24	1	1	1	USRTblock	1	USRT	93	600000	#ff0000	10pct	1	50pct	50pct	7000	477047	484067	476784	57	484343	276	0	0	91
6.1.1	win	2020-04-21	13:06:24	1	1	1	USRTblock	1	USRT	94	600000	#ff0000	10pct	1	50pct	50pct	7000	484347	491367	484067	57	491695	328	0	0	92
6.1.1	win	2020-04-21	13:06:24	1	1	1	USRTblock	1	USRT	95	600000	#ff0000	10pct	1	50pct	50pct	3000	491699	494716	491367	57	495227	511	0	0	93
6.1.1	win	2020-04-21	13:06:24	1	1	1	USRTblock	1	USRT	96	600000	#ff0000	10pct	1	50pct	50pct	3000	495231	498249	494716	57	498558	309	0	0	94
6.1.1	win	2020-04-21	13:06:24	1	1	1	USRTblock	1	USRT	97	600000	#ff0000	10pct	1	50pct	50pct	2000	498562	500582	498249	57	500837	255	0	0	95
6.1.1	win	2020-04-21	13:06:24	1	1	1	USRTblock	1	USRT	98	600000	#ff0000	10pct	1	50pct	50pct	5000	500842	505848	500582	57	506114	266	0	0	96
6.1.1	win	2020-04-21	13:06:24	1	1	1	USRTblock	1	USRT	99	600000	#ff0000	10pct	1	50pct	50pct	3000	506117	509131	505848	57	509499	368	0	0	97
6.1.1	win	2020-04-21	13:06:24	1	1	1	USRTblock	1	USRT	100	600000	#ff0000	10pct	1	50pct	50pct	8000	509502	517515	509131	57	517751	236	0	0	98
6.1.1	win	2020-04-21	13:06:24	1	1	1	USRTblock	1	USRT	101	600000	#ff0000	10pct	1	50pct	50pct	3000	517754	520763	517515	57	521051	288	0	0	99
6.1.1	win	2020-04-21	13:06:24	1	1	1	USRTblock	1	USRT	102	600000	#ff0000	10pct	1	50pct	50pct	5000	521054	526063	520763	57	526327	264	0	0	100
6.1.1	win	2020-04-21	13:06:24	1	1	1	USRTblock	1	USRT	103	600000	#ff0000	10pct	1	50pct	50pct	6000	526330	532346	526063	57	532665	319	0	0	101
6.1.1	win	2020-04-21	13:06:24	1	1	1	USRTblock	1	USRT	104	600000	#ff0000	10pct	1	50pct	50pct	3000	532668	535678	532346	57	536014	336	0	0	102
6.1.1	win	2020-04-21	13:06:24	1	1	1	USRTblock	1	USRT	105	600000	#ff0000	10pct	1	50pct	50pct	4000	536017	540028	535678	57	540351	323	0	0	103
6.1.1	win	2020-04-21	13:06:24	1	1	1	USRTblock	1	USRT	106	600000	#ff0000	10pct	1	50pct	50pct	3000	540354	543361	540028	57	543672	311	0	0	104
6.1.1	win	2020-04-21	13:06:24	1	1	1	USRTblock	1	USRT	107	600000	#ff0000	10pct	1	50pct	50pct	8000	543676	551694	543361	57	552016	322	0	0	105
6.1.1	win	2020-04-21	13:06:24	1	1	1	USRTblock	1	USRT	108	600000	#ff0000	10pct	1	50pct	50pct	5000	552020	557026	551694	57	557392	366	0	0	106
6.1.1	win	2020-04-21	13:06:24	1	1	1	USRTblock	1	USRT	109	600000	#ff0000	10pct	1	50pct	50pct	3000	557395	560409	557026	57	560703	294	0	0	107
6.1.1	win	2020-04-21	13:06:24	1	1	1	USRTblock	1	USRT	110	600000	#ff0000	10pct	1	50pct	50pct	8000	560708	568726	560409	57	569057	331	0	0	108
6.1.1	win	2020-04-21	13:06:24	1	1	1	USRTblock	1	USRT	111	600000	#ff0000	10pct	1	50pct	50pct	4000	569061	573075	568726	57	573451	376	0	0	109
6.1.1	win	2020-04-21	13:06:24	1	1	1	USRTblock	1	USRT	112	600000	#ff0000	10pct	1	50pct	50pct	4000	573454	577475	573075	57	577885	410	0	0	110
6.1.1	win	2020-04-21	13:06:24	1	1	1	USRTblock	1	USRT	113	600000	#ff0000	10pct	1	50pct	50pct	8000	577888	585908	577475	57	586284	376	0	0	111
6.1.1	win	2020-04-21	13:06:24	1	1	1	USRTblock	1	USRT	114	600000	#ff0000	10pct	1	50pct	50pct	8000	586288	594307	585908	57	594602	295	0	0	112
6.1.1	win	2020-04-21	13:06:24	1	1	1	USRTblock	1	USRT	115	600000	#ff0000	10pct	1	50pct	50pct	7000	594606	601622	594307	0	594714	-6908	0	0	113
