build	computer.platform	date	time	subject	group	sessionid	blockcode	blocknum	trialcode	trialnum	testduration	targetcolor	targetsize	fixed	targetx	targety	stiminterval	trialStart	shape.targetcircle.timestamp	lastCircleTimestamp	response	rt_elapsed	rt	EarlyResponse	countEarlyResponses	countResponses
6.1.1	win	2020-04-21	19:02:03	1	1	1	USRTblock	1	USRT	3	600000	#ff0000	10pct	1	50pct	50pct	5000	2796	7816	2047	57	8108	292	0	0	1
6.1.1	win	2020-04-21	19:02:03	1	1	1	USRTblock	1	USRT	4	600000	#ff0000	10pct	1	50pct	50pct	6000	8130	14149	7816	57	14454	305	0	0	2
6.1.1	win	2020-04-21	19:02:03	1	1	1	USRTblock	1	USRT	5	600000	#ff0000	10pct	1	50pct	50pct	5000	14457	19465	14149	57	19768	303	0	0	3
6.1.1	win	2020-04-21	19:02:03	1	1	1	USRTblock	1	USRT	6	600000	#ff0000	10pct	1	50pct	50pct	8000	19771	27782	19465	57	28199	417	0	0	4
6.1.1	win	2020-04-21	19:02:03	1	1	1	USRTblock	1	USRT	7	600000	#ff0000	10pct	1	50pct	50pct	3000	28204	31214	27782	57	31889	675	0	0	5
6.1.1	win	2020-04-21	19:02:03	1	1	1	USRTblock	1	USRT	8	600000	#ff0000	10pct	1	50pct	50pct	8000	31892	39897	31214	57	40304	407	0	0	6
6.1.1	win	2020-04-21	19:02:03	1	1	1	USRTblock	1	USRT	9	600000	#ff0000	10pct	1	50pct	50pct	3000	40307	43313	39897	57	43800	487	0	0	7
6.1.1	win	2020-04-21	19:02:03	1	1	1	USRTblock	1	USRT	10	600000	#ff0000	10pct	1	50pct	50pct	3000	43803	46812	43313	57	47212	400	0	0	8
6.1.1	win	2020-04-21	19:02:03	1	1	1	USRTblock	1	USRT	11	600000	#ff0000	10pct	1	50pct	50pct	7000	47215	54229	46812	57	54697	468	0	0	9
6.1.1	win	2020-04-21	19:02:03	1	1	1	USRTblock	1	USRT	12	600000	#ff0000	10pct	1	50pct	50pct	5000	54701	59712	54229	57	60068	356	0	0	10
6.1.1	win	2020-04-21	19:02:03	1	1	1	USRTblock	1	USRT	13	600000	#ff0000	10pct	1	50pct	50pct	3000	60072	63078	59712	57	63542	464	0	0	11
6.1.1	win	2020-04-21	19:02:03	1	1	1	USRTblock	1	USRT	14	600000	#ff0000	10pct	1	50pct	50pct	3000	63546	66561	63078	57	66896	335	0	0	12
6.1.1	win	2020-04-21	19:02:03	1	1	1	USRTblock	1	USRT	15	600000	#ff0000	10pct	1	50pct	50pct	7000	66900	73910	66561	57	74378	468	0	0	13
6.1.1	win	2020-04-21	19:02:03	1	1	1	USRTblock	1	USRT	16	600000	#ff0000	10pct	1	50pct	50pct	7000	74382	81392	73910	57	81863	471	0	0	14
6.1.1	win	2020-04-21	19:02:03	1	1	1	USRTblock	1	USRT	17	600000	#ff0000	10pct	1	50pct	50pct	6000	81867	87876	81392	57	88224	348	0	0	15
6.1.1	win	2020-04-21	19:02:03	1	1	1	USRTblock	1	USRT	18	600000	#ff0000	10pct	1	50pct	50pct	3000	88228	91242	87876	57	91673	431	0	0	16
6.1.1	win	2020-04-21	19:02:03	1	1	1	USRTblock	1	USRT	19	600000	#ff0000	10pct	1	50pct	50pct	3000	91676	94691	91242	57	95097	406	0	0	17
6.1.1	win	2020-04-21	19:02:03	1	1	1	USRTblock	1	USRT	20	600000	#ff0000	10pct	1	50pct	50pct	4000	95100	99108	94691	57	99455	347	0	0	18
6.1.1	win	2020-04-21	19:02:03	1	1	1	USRTblock	1	USRT	21	600000	#ff0000	10pct	1	50pct	50pct	4000	99459	103474	99108	57	103727	253	0	0	19
6.1.1	win	2020-04-21	19:02:03	1	1	1	USRTblock	1	USRT	22	600000	#ff0000	10pct	1	50pct	50pct	3000	103731	106740	103474	57	107328	588	0	0	20
6.1.1	win	2020-04-21	19:02:03	1	1	1	USRTblock	1	USRT	23	600000	#ff0000	10pct	1	50pct	50pct	5000	107332	112340	106740	57	112690	350	0	0	21
6.1.1	win	2020-04-21	19:02:03	1	1	1	USRTblock	1	USRT	24	600000	#ff0000	10pct	1	50pct	50pct	7000	112694	119705	112340	57	120087	382	0	0	22
6.1.1	win	2020-04-21	19:02:03	1	1	1	USRTblock	1	USRT	25	600000	#ff0000	10pct	1	50pct	50pct	7000	120092	127105	119705	57	127621	516	0	0	23
6.1.1	win	2020-04-21	19:02:03	1	1	1	USRTblock	1	USRT	26	600000	#ff0000	10pct	1	50pct	50pct	4000	127625	131637	127105	57	132250	613	0	0	24
6.1.1	win	2020-04-21	19:02:03	1	1	1	USRTblock	1	USRT	27	600000	#ff0000	10pct	1	50pct	50pct	8000	132255	140270	131637	57	140623	353	0	0	25
6.1.1	win	2020-04-21	19:02:03	1	1	1	USRTblock	1	USRT	28	600000	#ff0000	10pct	1	50pct	50pct	6000	140627	146636	140270	57	146926	290	0	0	26
6.1.1	win	2020-04-21	19:02:03	1	1	1	USRTblock	1	USRT	29	600000	#ff0000	10pct	1	50pct	50pct	8000	146930	154935	146636	57	155283	348	0	0	27
6.1.1	win	2020-04-21	19:02:03	1	1	1	USRTblock	1	USRT	30	600000	#ff0000	10pct	1	50pct	50pct	7000	155287	162301	154935	57	162673	372	0	0	28
6.1.1	win	2020-04-21	19:02:03	1	1	1	USRTblock	1	USRT	31	600000	#ff0000	10pct	1	50pct	50pct	8000	162677	170684	162301	57	170983	299	0	0	29
6.1.1	win	2020-04-21	19:02:03	1	1	1	USRTblock	1	USRT	32	600000	#ff0000	10pct	1	50pct	50pct	3000	170987	174000	170684	57	174351	351	0	0	30
6.1.1	win	2020-04-21	19:02:03	1	1	1	USRTblock	1	USRT	33	600000	#ff0000	10pct	1	50pct	50pct	5000	174355	179366	174000	57	179695	329	0	0	31
6.1.1	win	2020-04-21	19:02:03	1	1	1	USRTblock	1	USRT	34	600000	#ff0000	10pct	1	50pct	50pct	2000	179699	181716	179366	57	182099	383	0	0	32
6.1.1	win	2020-04-21	19:02:03	1	1	1	USRTblock	1	USRT	35	600000	#ff0000	10pct	1	50pct	50pct	7000	182103	189116	181716	57	189374	258	0	0	33
6.1.1	win	2020-04-21	19:02:03	1	1	1	USRTblock	1	USRT	36	600000	#ff0000	10pct	1	50pct	50pct	4000	189378	193398	189116	57	193731	333	0	0	34
6.1.1	win	2020-04-21	19:02:03	1	1	1	USRTblock	1	USRT	37	600000	#ff0000	10pct	1	50pct	50pct	8000	193735	201748	193398	57	201991	243	0	0	35
6.1.1	win	2020-04-21	19:02:03	1	1	1	USRTblock	1	USRT	38	600000	#ff0000	10pct	1	50pct	50pct	5000	201995	207013	201748	57	207297	284	0	0	36
6.1.1	win	2020-04-21	19:02:03	1	1	1	USRTblock	1	USRT	39	600000	#ff0000	10pct	1	50pct	50pct	5000	207301	212313	207013	57	212597	284	0	0	37
6.1.1	win	2020-04-21	19:02:03	1	1	1	USRTblock	1	USRT	40	600000	#ff0000	10pct	1	50pct	50pct	2000	212601	214612	212313	57	214930	318	0	0	38
6.1.1	win	2020-04-21	19:02:03	1	1	1	USRTblock	1	USRT	41	600000	#ff0000	10pct	1	50pct	50pct	2000	214935	216946	214612	57	217258	312	0	0	39
6.1.1	win	2020-04-21	19:02:03	1	1	1	USRTblock	1	USRT	42	600000	#ff0000	10pct	1	50pct	50pct	4000	217262	221278	216946	57	221531	253	0	0	40
6.1.1	win	2020-04-21	19:02:03	1	1	1	USRTblock	1	USRT	43	600000	#ff0000	10pct	1	50pct	50pct	8000	221534	229545	221278	57	229794	249	0	0	41
6.1.1	win	2020-04-21	19:02:03	1	1	1	USRTblock	1	USRT	44	600000	#ff0000	10pct	1	50pct	50pct	5000	229798	234811	229545	57	235131	320	0	0	42
6.1.1	win	2020-04-21	19:02:03	1	1	1	USRTblock	1	USRT	45	600000	#ff0000	10pct	1	50pct	50pct	6000	235135	241143	234811	57	241424	281	0	0	43
6.1.1	win	2020-04-21	19:02:03	1	1	1	USRTblock	1	USRT	46	600000	#ff0000	10pct	1	50pct	50pct	6000	241427	247443	241143	57	247861	418	0	0	44
6.1.1	win	2020-04-21	19:02:03	1	1	1	USRTblock	1	USRT	47	600000	#ff0000	10pct	1	50pct	50pct	2000	247865	249876	247443	57	250526	650	0	0	45
6.1.1	win	2020-04-21	19:02:03	1	1	1	USRTblock	1	USRT	48	600000	#ff0000	10pct	1	50pct	50pct	6000	250530	256543	249876	57	256803	260	0	0	46
6.1.1	win	2020-04-21	19:02:03	1	1	1	USRTblock	1	USRT	49	600000	#ff0000	10pct	1	50pct	50pct	5000	256806	261825	256543	57	262092	267	0	0	47
6.1.1	win	2020-04-21	19:02:03	1	1	1	USRTblock	1	USRT	50	600000	#ff0000	10pct	1	50pct	50pct	6000	262096	268107	261825	57	268348	241	0	0	48
6.1.1	win	2020-04-21	19:02:03	1	1	1	USRTblock	1	USRT	51	600000	#ff0000	10pct	1	50pct	50pct	6000	268352	274373	268107	57	274666	293	0	0	49
6.1.1	win	2020-04-21	19:02:03	1	1	1	USRTblock	1	USRT	52	600000	#ff0000	10pct	1	50pct	50pct	5000	274670	279690	274373	57	279969	279	0	0	50
6.1.1	win	2020-04-21	19:02:03	1	1	1	USRTblock	1	USRT	53	600000	#ff0000	10pct	1	50pct	50pct	4000	279972	283989	279690	57	284298	309	0	0	51
6.1.1	win	2020-04-21	19:02:03	1	1	1	USRTblock	1	USRT	54	600000	#ff0000	10pct	1	50pct	50pct	4000	284301	288322	283989	57	288707	385	0	0	52
6.1.1	win	2020-04-21	19:02:03	1	1	1	USRTblock	1	USRT	55	600000	#ff0000	10pct	1	50pct	50pct	3000	288711	291721	288322	57	292087	366	0	0	53
6.1.1	win	2020-04-21	19:02:03	1	1	1	USRTblock	1	USRT	56	600000	#ff0000	10pct	1	50pct	50pct	5000	292091	297104	291721	57	297376	272	0	0	54
6.1.1	win	2020-04-21	19:02:03	1	1	1	USRTblock	1	USRT	57	600000	#ff0000	10pct	1	50pct	50pct	5000	297380	302387	297104	57	302695	308	0	0	55
6.1.1	win	2020-04-21	19:02:03	1	1	1	USRTblock	1	USRT	58	600000	#ff0000	10pct	1	50pct	50pct	6000	302699	308720	302387	57	308992	272	0	0	56
6.1.1	win	2020-04-21	19:02:03	1	1	1	USRTblock	1	USRT	59	600000	#ff0000	10pct	1	50pct	50pct	3000	308995	312003	308720	57	312319	316	0	0	57
6.1.1	win	2020-04-21	19:02:03	1	1	1	USRTblock	1	USRT	60	600000	#ff0000	10pct	1	50pct	50pct	2000	312322	314336	312003	57	314692	356	0	0	58
6.1.1	win	2020-04-21	19:02:03	1	1	1	USRTblock	1	USRT	61	600000	#ff0000	10pct	1	50pct	50pct	6000	314696	320702	314336	57	320977	275	0	0	59
6.1.1	win	2020-04-21	19:02:03	1	1	1	USRTblock	1	USRT	62	600000	#ff0000	10pct	1	50pct	50pct	3000	321106	324118	320702	57	324537	419	0	0	60
6.1.1	win	2020-04-21	19:02:03	1	1	1	USRTblock	1	USRT	63	600000	#ff0000	10pct	1	50pct	50pct	5000	324541	329551	324118	57	329825	274	0	0	61
6.1.1	win	2020-04-21	19:02:03	1	1	1	USRTblock	1	USRT	64	600000	#ff0000	10pct	1	50pct	50pct	2000	329828	331834	329551	57	332136	302	0	0	62
6.1.1	win	2020-04-21	19:02:03	1	1	1	USRTblock	1	USRT	65	600000	#ff0000	10pct	1	50pct	50pct	7000	332140	339150	331834	57	339459	309	0	0	63
6.1.1	win	2020-04-21	19:02:03	1	1	1	USRTblock	1	USRT	66	600000	#ff0000	10pct	1	50pct	50pct	7000	339464	346483	339150	57	346761	278	0	0	64
6.1.1	win	2020-04-21	19:02:03	1	1	1	USRTblock	1	USRT	67	600000	#ff0000	10pct	1	50pct	50pct	7000	346764	353782	346483	57	354042	260	0	0	65
6.1.1	win	2020-04-21	19:02:03	1	1	1	USRTblock	1	USRT	68	600000	#ff0000	10pct	1	50pct	50pct	2000	354046	356065	353782	57	356405	340	0	0	66
6.1.1	win	2020-04-21	19:02:03	1	1	1	USRTblock	1	USRT	69	600000	#ff0000	10pct	1	50pct	50pct	3000	356409	359431	356065	57	359752	321	0	0	67
6.1.1	win	2020-04-21	19:02:03	1	1	1	USRTblock	1	USRT	70	600000	#ff0000	10pct	1	50pct	50pct	8000	359756	367764	359431	57	368029	265	0	0	68
6.1.1	win	2020-04-21	19:02:03	1	1	1	USRTblock	1	USRT	71	600000	#ff0000	10pct	1	50pct	50pct	7000	368033	375047	367764	57	375427	380	0	0	69
6.1.1	win	2020-04-21	19:02:03	1	1	1	USRTblock	1	USRT	72	600000	#ff0000	10pct	1	50pct	50pct	8000	375432	383446	375047	57	383687	241	0	0	70
6.1.1	win	2020-04-21	19:02:03	1	1	1	USRTblock	1	USRT	73	600000	#ff0000	10pct	1	50pct	50pct	2000	383691	385712	383446	57	386065	353	0	0	71
6.1.1	win	2020-04-21	19:02:03	1	1	1	USRTblock	1	USRT	74	600000	#ff0000	10pct	1	50pct	50pct	2000	386069	388079	385712	57	389099	1020	0	0	72
6.1.1	win	2020-04-21	19:02:03	1	1	1	USRTblock	1	USRT	75	600000	#ff0000	10pct	1	50pct	50pct	3000	389102	392111	388079	57	392396	285	0	0	73
6.1.1	win	2020-04-21	19:02:03	1	1	1	USRTblock	1	USRT	76	600000	#ff0000	10pct	1	50pct	50pct	8000	392399	400411	392111	57	400694	283	0	0	74
6.1.1	win	2020-04-21	19:02:03	1	1	1	USRTblock	1	USRT	77	600000	#ff0000	10pct	1	50pct	50pct	8000	400697	408710	400411	57	409022	312	0	0	75
6.1.1	win	2020-04-21	19:02:03	1	1	1	USRTblock	1	USRT	78	600000	#ff0000	10pct	1	50pct	50pct	8000	409026	417043	408710	57	417379	336	0	0	76
6.1.1	win	2020-04-21	19:02:03	1	1	1	USRTblock	1	USRT	79	600000	#ff0000	10pct	1	50pct	50pct	6000	417383	423392	417043	57	423765	373	0	0	77
6.1.1	win	2020-04-21	19:02:03	1	1	1	USRTblock	1	USRT	80	600000	#ff0000	10pct	1	50pct	50pct	2000	423768	425775	423392	57	426456	681	0	0	78
6.1.1	win	2020-04-21	19:02:03	1	1	1	USRTblock	1	USRT	81	600000	#ff0000	10pct	1	50pct	50pct	8000	426460	434475	425775	57	434784	309	0	0	79
6.1.1	win	2020-04-21	19:02:03	1	1	1	USRTblock	1	USRT	82	600000	#ff0000	10pct	1	50pct	50pct	7000	434788	441807	434475	57	442093	286	0	0	80
6.1.1	win	2020-04-21	19:02:03	1	1	1	USRTblock	1	USRT	83	600000	#ff0000	10pct	1	50pct	50pct	4000	442097	446106	441807	57	446475	369	0	0	81
6.1.1	win	2020-04-21	19:02:03	1	1	1	USRTblock	1	USRT	84	600000	#ff0000	10pct	1	50pct	50pct	8000	446479	-1	446106	57	448310	0	1	1	82
6.1.1	win	2020-04-21	19:02:03	1	1	1	USRTblock	1	USRT	85	600000	#ff0000	10pct	1	50pct	50pct	7000	448314	455322	-1	57	455701	379	0	1	83
6.1.1	win	2020-04-21	19:02:03	1	1	1	USRTblock	1	USRT	86	600000	#ff0000	10pct	1	50pct	50pct	4000	455705	459723	455322	57	460118	395	0	1	84
6.1.1	win	2020-04-21	19:02:03	1	1	1	USRTblock	1	USRT	87	600000	#ff0000	10pct	1	50pct	50pct	7000	460121	467138	459723	57	467519	381	0	1	85
6.1.1	win	2020-04-21	19:02:03	1	1	1	USRTblock	1	USRT	88	600000	#ff0000	10pct	1	50pct	50pct	7000	467523	474537	467138	57	475004	467	0	1	86
6.1.1	win	2020-04-21	19:02:03	1	1	1	USRTblock	1	USRT	89	600000	#ff0000	10pct	1	50pct	50pct	2000	475008	477019	474537	57	477531	512	0	1	87
6.1.1	win	2020-04-21	19:02:03	1	1	1	USRTblock	1	USRT	90	600000	#ff0000	10pct	1	50pct	50pct	2000	477535	479552	477019	57	479993	441	0	1	88
6.1.1	win	2020-04-21	19:02:03	1	1	1	USRTblock	1	USRT	91	600000	#ff0000	10pct	1	50pct	50pct	8000	479998	488019	479552	57	488331	312	0	1	89
6.1.1	win	2020-04-21	19:02:03	1	1	1	USRTblock	1	USRT	92	600000	#ff0000	10pct	1	50pct	50pct	2000	488335	490351	488019	57	491195	844	0	1	90
6.1.1	win	2020-04-21	19:02:03	1	1	1	USRTblock	1	USRT	93	600000	#ff0000	10pct	1	50pct	50pct	3000	491201	494218	490351	57	494567	349	0	1	91
6.1.1	win	2020-04-21	19:02:03	1	1	1	USRTblock	1	USRT	94	600000	#ff0000	10pct	1	50pct	50pct	4000	494570	498584	494218	57	499001	417	0	1	92
6.1.1	win	2020-04-21	19:02:03	1	1	1	USRTblock	1	USRT	95	600000	#ff0000	10pct	1	50pct	50pct	7000	499005	506017	498584	57	506542	525	0	1	93
6.1.1	win	2020-04-21	19:02:03	1	1	1	USRTblock	1	USRT	96	600000	#ff0000	10pct	1	50pct	50pct	2000	506546	508566	506017	57	508972	406	0	1	94
6.1.1	win	2020-04-21	19:02:03	1	1	1	USRTblock	1	USRT	97	600000	#ff0000	10pct	1	50pct	50pct	3000	508976	511983	508566	57	512303	320	0	1	95
6.1.1	win	2020-04-21	19:02:03	1	1	1	USRTblock	1	USRT	98	600000	#ff0000	10pct	1	50pct	50pct	4000	512307	516316	511983	57	516989	673	0	1	96
6.1.1	win	2020-04-21	19:02:03	1	1	1	USRTblock	1	USRT	99	600000	#ff0000	10pct	1	50pct	50pct	7000	516994	524015	516316	57	524363	348	0	1	97
6.1.1	win	2020-04-21	19:02:03	1	1	1	USRTblock	1	USRT	100	600000	#ff0000	10pct	1	50pct	50pct	5000	524368	529381	524015	57	529788	407	0	1	98
6.1.1	win	2020-04-21	19:02:03	1	1	1	USRTblock	1	USRT	101	600000	#ff0000	10pct	1	50pct	50pct	7000	529792	536814	529381	57	537181	367	0	1	99
6.1.1	win	2020-04-21	19:02:03	1	1	1	USRTblock	1	USRT	102	600000	#ff0000	10pct	1	50pct	50pct	4000	537185	541196	536814	57	541680	484	0	1	100
6.1.1	win	2020-04-21	19:02:03	1	1	1	USRTblock	1	USRT	103	600000	#ff0000	10pct	1	50pct	50pct	6000	541684	547696	541196	57	548019	323	0	1	101
6.1.1	win	2020-04-21	19:02:03	1	1	1	USRTblock	1	USRT	104	600000	#ff0000	10pct	1	50pct	50pct	8000	548023	556029	547696	57	556498	469	0	1	102
6.1.1	win	2020-04-21	19:02:03	1	1	1	USRTblock	1	USRT	105	600000	#ff0000	10pct	1	50pct	50pct	6000	556502	562511	556029	57	562863	352	0	1	103
6.1.1	win	2020-04-21	19:02:03	1	1	1	USRTblock	1	USRT	106	600000	#ff0000	10pct	1	50pct	50pct	2000	562866	564878	562511	57	565366	488	0	1	104
6.1.1	win	2020-04-21	19:02:03	1	1	1	USRTblock	1	USRT	107	600000	#ff0000	10pct	1	50pct	50pct	4000	565370	569377	564878	57	569768	391	0	1	105
6.1.1	win	2020-04-21	19:02:03	1	1	1	USRTblock	1	USRT	108	600000	#ff0000	10pct	1	50pct	50pct	2000	569773	571793	569377	57	572136	343	0	1	106
6.1.1	win	2020-04-21	19:02:03	1	1	1	USRTblock	1	USRT	109	600000	#ff0000	10pct	1	50pct	50pct	4000	572141	576160	571793	57	576601	441	0	1	107
6.1.1	win	2020-04-21	19:02:03	1	1	1	USRTblock	1	USRT	110	600000	#ff0000	10pct	1	50pct	50pct	7000	576605	583626	576160	57	584010	384	0	1	108
6.1.1	win	2020-04-21	19:02:03	1	1	1	USRTblock	1	USRT	111	600000	#ff0000	10pct	1	50pct	50pct	8000	584014	592025	583626	57	592412	387	0	1	109
6.1.1	win	2020-04-21	19:02:03	1	1	1	USRTblock	1	USRT	112	600000	#ff0000	10pct	1	50pct	50pct	7000	592416	599425	592025	57	599763	338	0	1	110
6.1.1	win	2020-04-21	19:02:03	1	1	1	USRTblock	1	USRT	113	600000	#ff0000	10pct	1	50pct	50pct	5000	599767	-1	599425	0	599861	0	1	2	111
