build	computer.platform	date	time	subject	group	sessionid	blockcode	blocknum	trialcode	trialnum	testduration	targetcolor	targetsize	fixed	targetx	targety	stiminterval	trialStart	shape.targetcircle.timestamp	lastCircleTimestamp	response	rt_elapsed	rt	EarlyResponse	countEarlyResponses	countResponses
6.1.1	win	2020-04-22	16:28:54	1	1	1	USRTblock	1	USRT	3	600000	#ff0000	10pct	1	50pct	50pct	8000	3241	11254	2667	57	11502	248	0	0	1
6.1.1	win	2020-04-22	16:28:54	1	1	1	USRTblock	1	USRT	4	600000	#ff0000	10pct	1	50pct	50pct	7000	11521	-1	11254	57	16751	0	1	1	2
6.1.1	win	2020-04-22	16:28:54	1	1	1	USRTblock	1	USRT	5	600000	#ff0000	10pct	1	50pct	50pct	4000	16754	20768	-1	57	21137	369	0	1	3
6.1.1	win	2020-04-22	16:28:54	1	1	1	USRTblock	1	USRT	6	600000	#ff0000	10pct	1	50pct	50pct	3000	21141	24151	20768	57	24428	277	0	1	4
6.1.1	win	2020-04-22	16:28:54	1	1	1	USRTblock	1	USRT	7	600000	#ff0000	10pct	1	50pct	50pct	8000	24432	32451	24151	57	32733	282	0	1	5
6.1.1	win	2020-04-22	16:28:54	1	1	1	USRTblock	1	USRT	8	600000	#ff0000	10pct	1	50pct	50pct	5000	32736	37750	32451	57	37977	227	0	1	6
6.1.1	win	2020-04-22	16:28:54	1	1	1	USRTblock	1	USRT	9	600000	#ff0000	10pct	1	50pct	50pct	3000	37981	41000	37750	57	41249	249	0	1	7
6.1.1	win	2020-04-22	16:28:54	1	1	1	USRTblock	1	USRT	10	600000	#ff0000	10pct	1	50pct	50pct	3000	41253	44266	41000	57	44528	262	0	1	8
6.1.1	win	2020-04-22	16:28:54	1	1	1	USRTblock	1	USRT	11	600000	#ff0000	10pct	1	50pct	50pct	4000	44532	48549	44266	57	48813	264	0	1	9
6.1.1	win	2020-04-22	16:28:54	1	1	1	USRTblock	1	USRT	12	600000	#ff0000	10pct	1	50pct	50pct	3000	48816	51832	48549	57	52115	283	0	1	10
6.1.1	win	2020-04-22	16:28:54	1	1	1	USRTblock	1	USRT	13	600000	#ff0000	10pct	1	50pct	50pct	2000	52118	54132	51832	57	54454	322	0	1	11
6.1.1	win	2020-04-22	16:28:54	1	1	1	USRTblock	1	USRT	14	600000	#ff0000	10pct	1	50pct	50pct	3000	54458	57464	54132	57	57800	336	0	1	12
6.1.1	win	2020-04-22	16:28:54	1	1	1	USRTblock	1	USRT	15	600000	#ff0000	10pct	1	50pct	50pct	2000	57804	59814	57464	57	60141	327	0	1	13
6.1.1	win	2020-04-22	16:28:54	1	1	1	USRTblock	1	USRT	16	600000	#ff0000	10pct	1	50pct	50pct	4000	60145	64164	59814	57	64440	276	0	1	14
6.1.1	win	2020-04-22	16:28:54	1	1	1	USRTblock	1	USRT	17	600000	#ff0000	10pct	1	50pct	50pct	5000	64443	69464	64164	57	69716	252	0	1	15
6.1.1	win	2020-04-22	16:28:54	1	1	1	USRTblock	1	USRT	18	600000	#ff0000	10pct	1	50pct	50pct	6000	69720	75730	69464	57	76058	328	0	1	16
6.1.1	win	2020-04-22	16:28:54	1	1	1	USRTblock	1	USRT	19	600000	#ff0000	10pct	1	50pct	50pct	4000	76062	80079	75730	57	80372	293	0	1	17
6.1.1	win	2020-04-22	16:28:54	1	1	1	USRTblock	1	USRT	20	600000	#ff0000	10pct	1	50pct	50pct	5000	80375	-1	80079	57	84252	0	1	2	18
6.1.1	win	2020-04-22	16:28:54	1	1	1	USRTblock	1	USRT	21	600000	#ff0000	10pct	1	50pct	50pct	7000	84255	91261	-1	57	91537	276	0	2	19
6.1.1	win	2020-04-22	16:28:54	1	1	1	USRTblock	1	USRT	22	600000	#ff0000	10pct	1	50pct	50pct	7000	91541	98561	91261	57	98873	312	0	2	20
6.1.1	win	2020-04-22	16:28:54	1	1	1	USRTblock	1	USRT	23	600000	#ff0000	10pct	1	50pct	50pct	8000	98876	106893	98561	57	107198	305	0	2	21
6.1.1	win	2020-04-22	16:28:54	1	1	1	USRTblock	1	USRT	24	600000	#ff0000	10pct	1	50pct	50pct	3000	107202	110209	106893	57	110511	302	0	2	22
6.1.1	win	2020-04-22	16:28:54	1	1	1	USRTblock	1	USRT	25	600000	#ff0000	10pct	1	50pct	50pct	7000	110515	117526	110209	57	117865	339	0	2	23
6.1.1	win	2020-04-22	16:28:54	1	1	1	USRTblock	1	USRT	26	600000	#ff0000	10pct	1	50pct	50pct	5000	117869	122875	117526	57	123152	277	0	2	24
6.1.1	win	2020-04-22	16:28:54	1	1	1	USRTblock	1	USRT	27	600000	#ff0000	10pct	1	50pct	50pct	6000	123155	129175	122875	57	129471	296	0	2	25
6.1.1	win	2020-04-22	16:28:54	1	1	1	USRTblock	1	USRT	28	600000	#ff0000	10pct	1	50pct	50pct	2000	129475	131490	129175	57	131882	392	0	2	26
6.1.1	win	2020-04-22	16:28:54	1	1	1	USRTblock	1	USRT	29	600000	#ff0000	10pct	1	50pct	50pct	6000	131885	137890	131490	57	138165	275	0	2	27
6.1.1	win	2020-04-22	16:28:54	1	1	1	USRTblock	1	USRT	30	600000	#ff0000	10pct	1	50pct	50pct	8000	138168	146190	137890	57	146469	279	0	2	28
6.1.1	win	2020-04-22	16:28:54	1	1	1	USRTblock	1	USRT	31	600000	#ff0000	10pct	1	50pct	50pct	4000	146472	150489	146190	57	150748	259	0	2	29
6.1.1	win	2020-04-22	16:28:54	1	1	1	USRTblock	1	USRT	32	600000	#ff0000	10pct	1	50pct	50pct	7000	150752	157771	150489	57	158061	290	0	2	30
6.1.1	win	2020-04-22	16:28:54	1	1	1	USRTblock	1	USRT	33	600000	#ff0000	10pct	1	50pct	50pct	6000	158065	164071	157771	57	164337	266	0	2	31
6.1.1	win	2020-04-22	16:28:54	1	1	1	USRTblock	1	USRT	34	600000	#ff0000	10pct	1	50pct	50pct	4000	164341	168354	164071	57	168618	264	0	2	32
6.1.1	win	2020-04-22	16:28:54	1	1	1	USRTblock	1	USRT	35	600000	#ff0000	10pct	1	50pct	50pct	6000	168622	174637	168354	57	174931	294	0	2	33
6.1.1	win	2020-04-22	16:28:54	1	1	1	USRTblock	1	USRT	36	600000	#ff0000	10pct	1	50pct	50pct	8000	174935	182952	174637	57	183290	338	0	2	34
6.1.1	win	2020-04-22	16:28:54	1	1	1	USRTblock	1	USRT	37	600000	#ff0000	10pct	1	50pct	50pct	3000	183294	186302	182952	57	186644	342	0	2	35
6.1.1	win	2020-04-22	16:28:54	1	1	1	USRTblock	1	USRT	38	600000	#ff0000	10pct	1	50pct	50pct	8000	186648	194668	186302	57	195043	375	0	2	36
6.1.1	win	2020-04-22	16:28:54	1	1	1	USRTblock	1	USRT	39	600000	#ff0000	10pct	1	50pct	50pct	4000	195046	199067	194668	57	199465	398	0	2	37
6.1.1	win	2020-04-22	16:28:54	1	1	1	USRTblock	1	USRT	40	600000	#ff0000	10pct	1	50pct	50pct	2000	199469	201483	199067	57	201852	369	0	2	38
6.1.1	win	2020-04-22	16:28:54	1	1	1	USRTblock	1	USRT	41	600000	#ff0000	10pct	1	50pct	50pct	4000	201855	205867	201483	57	206217	350	0	2	39
6.1.1	win	2020-04-22	16:28:54	1	1	1	USRTblock	1	USRT	42	600000	#ff0000	10pct	1	50pct	50pct	5000	206221	211233	205867	57	211495	262	0	2	40
6.1.1	win	2020-04-22	16:28:54	1	1	1	USRTblock	1	USRT	43	600000	#ff0000	10pct	1	50pct	50pct	6000	211499	217515	211233	57	217815	300	0	2	41
6.1.1	win	2020-04-22	16:28:54	1	1	1	USRTblock	1	USRT	44	600000	#ff0000	10pct	1	50pct	50pct	6000	217819	223832	217515	57	224146	314	0	2	42
6.1.1	win	2020-04-22	16:28:54	1	1	1	USRTblock	1	USRT	45	600000	#ff0000	10pct	1	50pct	50pct	6000	224149	230164	223832	57	230553	389	0	2	43
6.1.1	win	2020-04-22	16:28:54	1	1	1	USRTblock	1	USRT	46	600000	#ff0000	10pct	1	50pct	50pct	6000	230557	236563	230164	57	236887	324	0	2	44
6.1.1	win	2020-04-22	16:28:54	1	1	1	USRTblock	1	USRT	47	600000	#ff0000	10pct	1	50pct	50pct	3000	236890	239896	236563	57	240358	462	0	2	45
6.1.1	win	2020-04-22	16:28:54	1	1	1	USRTblock	1	USRT	48	600000	#ff0000	10pct	1	50pct	50pct	2000	240362	242379	239896	57	242839	460	0	2	46
6.1.1	win	2020-04-22	16:28:54	1	1	1	USRTblock	1	USRT	49	600000	#ff0000	10pct	1	50pct	50pct	5000	242843	247862	242379	57	248328	466	0	2	47
6.1.1	win	2020-04-22	16:28:54	1	1	1	USRTblock	1	USRT	50	600000	#ff0000	10pct	1	50pct	50pct	8000	248331	256345	247862	57	256646	301	0	2	48
6.1.1	win	2020-04-22	16:28:54	1	1	1	USRTblock	1	USRT	51	600000	#ff0000	10pct	1	50pct	50pct	7000	256649	263661	256345	57	263919	258	0	2	49
6.1.1	win	2020-04-22	16:28:54	1	1	1	USRTblock	1	USRT	52	600000	#ff0000	10pct	1	50pct	50pct	8000	263923	271944	263661	57	272262	318	0	2	50
6.1.1	win	2020-04-22	16:28:54	1	1	1	USRTblock	1	USRT	53	600000	#ff0000	10pct	1	50pct	50pct	2000	272265	274276	271944	57	274654	378	0	2	51
6.1.1	win	2020-04-22	16:28:54	1	1	1	USRTblock	1	USRT	54	600000	#ff0000	10pct	1	50pct	50pct	5000	274658	279676	274276	57	279934	258	0	2	52
6.1.1	win	2020-04-22	16:28:54	1	1	1	USRTblock	1	USRT	55	600000	#ff0000	10pct	1	50pct	50pct	5000	279937	284942	279676	57	285304	362	0	2	53
6.1.1	win	2020-04-22	16:28:54	1	1	1	USRTblock	1	USRT	56	600000	#ff0000	10pct	1	50pct	50pct	5000	285308	290325	284942	57	290767	442	0	2	54
6.1.1	win	2020-04-22	16:28:54	1	1	1	USRTblock	1	USRT	57	600000	#ff0000	10pct	1	50pct	50pct	2000	290770	292791	290325	57	293189	398	0	2	55
6.1.1	win	2020-04-22	16:28:54	1	1	1	USRTblock	1	USRT	58	600000	#ff0000	10pct	1	50pct	50pct	7000	293193	300207	292791	57	300493	286	0	2	56
6.1.1	win	2020-04-22	16:28:54	1	1	1	USRTblock	1	USRT	59	600000	#ff0000	10pct	1	50pct	50pct	8000	300496	308507	300207	57	308823	316	0	2	57
6.1.1	win	2020-04-22	16:28:54	1	1	1	USRTblock	1	USRT	60	600000	#ff0000	10pct	1	50pct	50pct	3000	308826	311839	308507	57	312183	344	0	2	58
6.1.1	win	2020-04-22	16:28:54	1	1	1	USRTblock	1	USRT	61	600000	#ff0000	10pct	1	50pct	50pct	8000	312186	320205	311839	57	320461	256	0	2	59
6.1.1	win	2020-04-22	16:28:54	1	1	1	USRTblock	1	USRT	62	600000	#ff0000	10pct	1	50pct	50pct	2000	320465	322471	320205	57	322827	356	0	2	60
6.1.1	win	2020-04-22	16:28:54	1	1	1	USRTblock	1	USRT	63	600000	#ff0000	10pct	1	50pct	50pct	8000	322830	330838	322471	57	331173	335	0	2	61
6.1.1	win	2020-04-22	16:28:54	1	1	1	USRTblock	1	USRT	64	600000	#ff0000	10pct	1	50pct	50pct	4000	331177	335187	330838	57	335526	339	0	2	62
6.1.1	win	2020-04-22	16:28:54	1	1	1	USRTblock	1	USRT	65	600000	#ff0000	10pct	1	50pct	50pct	4000	335529	339536	335187	57	339873	337	0	2	63
6.1.1	win	2020-04-22	16:28:54	1	1	1	USRTblock	1	USRT	66	600000	#ff0000	10pct	1	50pct	50pct	5000	339876	344886	339536	57	345138	252	0	2	64
6.1.1	win	2020-04-22	16:28:54	1	1	1	USRTblock	1	USRT	67	600000	#ff0000	10pct	1	50pct	50pct	8000	345141	353152	344886	57	353409	257	0	2	65
6.1.1	win	2020-04-22	16:28:54	1	1	1	USRTblock	1	USRT	68	600000	#ff0000	10pct	1	50pct	50pct	5000	353414	358435	353152	57	358727	292	0	2	66
6.1.1	win	2020-04-22	16:28:54	1	1	1	USRTblock	1	USRT	69	600000	#ff0000	10pct	1	50pct	50pct	8000	358731	366750	358435	57	367091	341	0	2	67
6.1.1	win	2020-04-22	16:28:54	1	1	1	USRTblock	1	USRT	70	600000	#ff0000	10pct	1	50pct	50pct	7000	367094	374100	366750	57	374379	279	0	2	68
6.1.1	win	2020-04-22	16:28:54	1	1	1	USRTblock	1	USRT	71	600000	#ff0000	10pct	1	50pct	50pct	2000	374383	376399	374100	57	376802	403	0	2	69
6.1.1	win	2020-04-22	16:28:54	1	1	1	USRTblock	1	USRT	72	600000	#ff0000	10pct	1	50pct	50pct	7000	376806	383816	376399	57	384111	295	0	2	70
6.1.1	win	2020-04-22	16:28:54	1	1	1	USRTblock	1	USRT	73	600000	#ff0000	10pct	1	50pct	50pct	8000	384114	392132	383816	57	392415	283	0	2	71
6.1.1	win	2020-04-22	16:28:54	1	1	1	USRTblock	1	USRT	74	600000	#ff0000	10pct	1	50pct	50pct	5000	392418	397431	392132	57	397783	352	0	2	72
6.1.1	win	2020-04-22	16:28:54	1	1	1	USRTblock	1	USRT	75	600000	#ff0000	10pct	1	50pct	50pct	3000	397787	400797	397431	57	401194	397	0	2	73
6.1.1	win	2020-04-22	16:28:54	1	1	1	USRTblock	1	USRT	76	600000	#ff0000	10pct	1	50pct	50pct	8000	401198	409214	400797	57	409503	289	0	2	74
6.1.1	win	2020-04-22	16:28:54	1	1	1	USRTblock	1	USRT	77	600000	#ff0000	10pct	1	50pct	50pct	4000	409507	413512	409214	57	413842	330	0	2	75
6.1.1	win	2020-04-22	16:28:54	1	1	1	USRTblock	1	USRT	78	600000	#ff0000	10pct	1	50pct	50pct	6000	413846	419862	413512	57	420271	409	0	2	76
6.1.1	win	2020-04-22	16:28:54	1	1	1	USRTblock	1	USRT	79	600000	#ff0000	10pct	1	50pct	50pct	6000	420274	426295	419862	57	426650	355	0	2	77
6.1.1	win	2020-04-22	16:28:54	1	1	1	USRTblock	1	USRT	80	600000	#ff0000	10pct	1	50pct	50pct	4000	426654	430661	426295	57	430985	324	0	2	78
6.1.1	win	2020-04-22	16:28:54	1	1	1	USRTblock	1	USRT	81	600000	#ff0000	10pct	1	50pct	50pct	3000	430989	433993	430661	57	434402	409	0	2	79
6.1.1	win	2020-04-22	16:28:54	1	1	1	USRTblock	1	USRT	82	600000	#ff0000	10pct	1	50pct	50pct	4000	434406	438426	433993	57	438780	354	0	2	80
6.1.1	win	2020-04-22	16:28:54	1	1	1	USRTblock	1	USRT	83	600000	#ff0000	10pct	1	50pct	50pct	3000	438784	441793	438426	57	442198	405	0	2	81
6.1.1	win	2020-04-22	16:28:54	1	1	1	USRTblock	1	USRT	84	600000	#ff0000	10pct	1	50pct	50pct	3000	442202	445210	441793	57	445548	338	0	2	82
6.1.1	win	2020-04-22	16:28:54	1	1	1	USRTblock	1	USRT	85	600000	#ff0000	10pct	1	50pct	50pct	2000	445552	447559	445210	57	447989	430	0	2	83
6.1.1	win	2020-04-22	16:28:54	1	1	1	USRTblock	1	USRT	86	600000	#ff0000	10pct	1	50pct	50pct	6000	447993	454009	447559	57	454326	317	0	2	84
6.1.1	win	2020-04-22	16:28:54	1	1	1	USRTblock	1	USRT	87	600000	#ff0000	10pct	1	50pct	50pct	4000	454329	458342	454009	57	459016	674	0	2	85
6.1.1	win	2020-04-22	16:28:54	1	1	1	USRTblock	1	USRT	88	600000	#ff0000	10pct	1	50pct	50pct	4000	459020	463024	458342	57	463308	284	0	2	86
6.1.1	win	2020-04-22	16:28:54	1	1	1	USRTblock	1	USRT	89	600000	#ff0000	10pct	1	50pct	50pct	7000	463312	-1	463024	57	467628	0	1	3	87
6.1.1	win	2020-04-22	16:28:54	1	1	1	USRTblock	1	USRT	90	600000	#ff0000	10pct	1	50pct	50pct	8000	467631	-1	-1	57	474338	0	1	4	88
6.1.1	win	2020-04-22	16:28:54	1	1	1	USRTblock	1	USRT	91	600000	#ff0000	10pct	1	50pct	50pct	4000	474342	478356	-1	57	478647	291	0	4	89
6.1.1	win	2020-04-22	16:28:54	1	1	1	USRTblock	1	USRT	92	600000	#ff0000	10pct	1	50pct	50pct	6000	478651	484655	478356	57	484984	329	0	4	90
6.1.1	win	2020-04-22	16:28:54	1	1	1	USRTblock	1	USRT	93	600000	#ff0000	10pct	1	50pct	50pct	6000	484988	491005	484655	57	491311	306	0	4	91
6.1.1	win	2020-04-22	16:28:54	1	1	1	USRTblock	1	USRT	94	600000	#ff0000	10pct	1	50pct	50pct	4000	491316	495337	491005	57	495664	327	0	4	92
6.1.1	win	2020-04-22	16:28:54	1	1	1	USRTblock	1	USRT	95	600000	#ff0000	10pct	1	50pct	50pct	7000	495667	502687	495337	57	502948	261	0	4	93
6.1.1	win	2020-04-22	16:28:54	1	1	1	USRTblock	1	USRT	96	600000	#ff0000	10pct	1	50pct	50pct	2000	502952	504970	502687	57	505397	427	0	4	94
6.1.1	win	2020-04-22	16:28:54	1	1	1	USRTblock	1	USRT	97	600000	#ff0000	10pct	1	50pct	50pct	2000	505401	507420	504970	57	507709	289	0	4	95
6.1.1	win	2020-04-22	16:28:54	1	1	1	USRTblock	1	USRT	98	600000	#ff0000	10pct	1	50pct	50pct	3000	507712	510719	507420	57	510997	278	0	4	96
6.1.1	win	2020-04-22	16:28:54	1	1	1	USRTblock	1	USRT	99	600000	#ff0000	10pct	1	50pct	50pct	8000	511000	519019	510719	57	519324	305	0	4	97
6.1.1	win	2020-04-22	16:28:54	1	1	1	USRTblock	1	USRT	100	600000	#ff0000	10pct	1	50pct	50pct	6000	519328	525335	519019	57	525654	319	0	4	98
6.1.1	win	2020-04-22	16:28:54	1	1	1	USRTblock	1	USRT	101	600000	#ff0000	10pct	1	50pct	50pct	7000	525658	532668	525335	57	532959	291	0	4	99
6.1.1	win	2020-04-22	16:28:54	1	1	1	USRTblock	1	USRT	102	600000	#ff0000	10pct	1	50pct	50pct	8000	532963	540983	532668	57	541313	330	0	4	100
6.1.1	win	2020-04-22	16:28:54	1	1	1	USRTblock	1	USRT	103	600000	#ff0000	10pct	1	50pct	50pct	8000	541316	549332	540983	57	549673	341	0	4	101
6.1.1	win	2020-04-22	16:28:54	1	1	1	USRTblock	1	USRT	104	600000	#ff0000	10pct	1	50pct	50pct	8000	549676	557682	549332	57	558011	329	0	4	102
6.1.1	win	2020-04-22	16:28:54	1	1	1	USRTblock	1	USRT	105	600000	#ff0000	10pct	1	50pct	50pct	2000	558015	560031	557682	57	560532	501	0	4	103
6.1.1	win	2020-04-22	16:28:54	1	1	1	USRTblock	1	USRT	106	600000	#ff0000	10pct	1	50pct	50pct	2000	560536	562547	560031	57	562971	424	0	4	104
6.1.1	win	2020-04-22	16:28:54	1	1	1	USRTblock	1	USRT	107	600000	#ff0000	10pct	1	50pct	50pct	2000	562975	564981	562547	57	565395	414	0	4	105
6.1.1	win	2020-04-22	16:28:54	1	1	1	USRTblock	1	USRT	108	600000	#ff0000	10pct	1	50pct	50pct	7000	565398	572413	564981	57	572710	297	0	4	106
6.1.1	win	2020-04-22	16:28:54	1	1	1	USRTblock	1	USRT	109	600000	#ff0000	10pct	1	50pct	50pct	4000	572714	576729	572413	57	577028	299	0	4	107
6.1.1	win	2020-04-22	16:28:54	1	1	1	USRTblock	1	USRT	110	600000	#ff0000	10pct	1	50pct	50pct	5000	577031	582045	576729	57	582404	359	0	4	108
6.1.1	win	2020-04-22	16:28:54	1	1	1	USRTblock	1	USRT	111	600000	#ff0000	10pct	1	50pct	50pct	3000	582408	585428	582045	57	585817	389	0	4	109
6.1.1	win	2020-04-22	16:28:54	1	1	1	USRTblock	1	USRT	112	600000	#ff0000	10pct	1	50pct	50pct	5000	585820	590828	585428	57	591127	299	0	4	110
6.1.1	win	2020-04-22	16:28:54	1	1	1	USRTblock	1	USRT	113	600000	#ff0000	10pct	1	50pct	50pct	2000	591131	593145	590828	57	593544	399	0	4	111
6.1.1	win	2020-04-22	16:28:54	1	1	1	USRTblock	1	USRT	114	600000	#ff0000	10pct	1	50pct	50pct	8000	593549	601561	593145	0	593601	-7960	0	4	112
