build	computer.platform	date	time	subject	group	sessionid	blockcode	blocknum	trialcode	trialnum	testduration	targetcolor	targetsize	fixed	targetx	targety	stiminterval	trialStart	shape.targetcircle.timestamp	lastCircleTimestamp	response	rt_elapsed	rt	EarlyResponse	countEarlyResponses	countResponses
6.1.1	win	2020-04-21	22:07:01	1	1	1	USRTblock	1	USRT	3	600000	#ff0000	10pct	1	50pct	50pct	3000	3363	6374	2620	57	6688	314	0	0	1
6.1.1	win	2020-04-21	22:07:01	1	1	1	USRTblock	1	USRT	4	600000	#ff0000	10pct	1	50pct	50pct	2000	6732	8740	6374	57	9185	445	0	0	2
6.1.1	win	2020-04-21	22:07:01	1	1	1	USRTblock	1	USRT	5	600000	#ff0000	10pct	1	50pct	50pct	8000	9189	17206	8740	57	17565	359	0	0	3
6.1.1	win	2020-04-21	22:07:01	1	1	1	USRTblock	1	USRT	6	600000	#ff0000	10pct	1	50pct	50pct	6000	17569	23589	17206	57	24128	539	0	0	4
6.1.1	win	2020-04-21	22:07:01	1	1	1	USRTblock	1	USRT	7	600000	#ff0000	10pct	1	50pct	50pct	6000	24131	30138	23589	57	30504	366	0	0	5
6.1.1	win	2020-04-21	22:07:01	1	1	1	USRTblock	1	USRT	8	600000	#ff0000	10pct	1	50pct	50pct	5000	30507	35520	30138	57	35819	299	0	0	6
6.1.1	win	2020-04-21	22:07:01	1	1	1	USRTblock	1	USRT	9	600000	#ff0000	10pct	1	50pct	50pct	3000	35823	38837	35520	57	39234	397	0	0	7
6.1.1	win	2020-04-21	22:07:01	1	1	1	USRTblock	1	USRT	10	600000	#ff0000	10pct	1	50pct	50pct	5000	39238	44253	38837	57	44517	264	0	0	8
6.1.1	win	2020-04-21	22:07:01	1	1	1	USRTblock	1	USRT	11	600000	#ff0000	10pct	1	50pct	50pct	3000	44520	47536	44253	57	47866	330	0	0	9
6.1.1	win	2020-04-21	22:07:01	1	1	1	USRTblock	1	USRT	12	600000	#ff0000	10pct	1	50pct	50pct	3000	47870	-1	47536	57	50389	0	1	1	10
6.1.1	win	2020-04-21	22:07:01	1	1	1	USRTblock	1	USRT	13	600000	#ff0000	10pct	1	50pct	50pct	4000	50392	54402	-1	57	54664	262	0	1	11
6.1.1	win	2020-04-21	22:07:01	1	1	1	USRTblock	1	USRT	14	600000	#ff0000	10pct	1	50pct	50pct	6000	54668	60685	54402	57	60941	256	0	1	12
6.1.1	win	2020-04-21	22:07:01	1	1	1	USRTblock	1	USRT	15	600000	#ff0000	10pct	1	50pct	50pct	4000	60944	64951	60685	57	65252	301	0	1	13
6.1.1	win	2020-04-21	22:07:01	1	1	1	USRTblock	1	USRT	16	600000	#ff0000	10pct	1	50pct	50pct	3000	65255	68267	64951	57	68513	246	0	1	14
6.1.1	win	2020-04-21	22:07:01	1	1	1	USRTblock	1	USRT	17	600000	#ff0000	10pct	1	50pct	50pct	2000	68516	70534	68267	57	70864	330	0	1	15
6.1.1	win	2020-04-21	22:07:01	1	1	1	USRTblock	1	USRT	18	600000	#ff0000	10pct	1	50pct	50pct	5000	70868	75883	70534	57	76212	329	0	1	16
6.1.1	win	2020-04-21	22:07:01	1	1	1	USRTblock	1	USRT	19	600000	#ff0000	10pct	1	50pct	50pct	2000	76216	78233	75883	57	78629	396	0	1	17
6.1.1	win	2020-04-21	22:07:01	1	1	1	USRTblock	1	USRT	20	600000	#ff0000	10pct	1	50pct	50pct	7000	78633	85649	78233	57	86018	369	0	1	18
6.1.1	win	2020-04-21	22:07:01	1	1	1	USRTblock	1	USRT	21	600000	#ff0000	10pct	1	50pct	50pct	5000	86021	91031	85649	57	91416	385	0	1	19
6.1.1	win	2020-04-21	22:07:01	1	1	1	USRTblock	1	USRT	22	600000	#ff0000	10pct	1	50pct	50pct	3000	91420	94431	91031	57	94860	429	0	1	20
6.1.1	win	2020-04-21	22:07:01	1	1	1	USRTblock	1	USRT	23	600000	#ff0000	10pct	1	50pct	50pct	7000	94863	101881	94431	57	102252	371	0	1	21
6.1.1	win	2020-04-21	22:07:01	1	1	1	USRTblock	1	USRT	24	600000	#ff0000	10pct	1	50pct	50pct	3000	102255	105263	101881	57	105844	581	0	1	22
6.1.1	win	2020-04-21	22:07:01	1	1	1	USRTblock	1	USRT	25	600000	#ff0000	10pct	1	50pct	50pct	7000	105847	112862	105263	57	113317	455	0	1	23
6.1.1	win	2020-04-21	22:07:01	1	1	1	USRTblock	1	USRT	26	600000	#ff0000	10pct	1	50pct	50pct	3000	113320	116329	112862	57	116641	312	0	1	24
6.1.1	win	2020-04-21	22:07:01	1	1	1	USRTblock	1	USRT	27	600000	#ff0000	10pct	1	50pct	50pct	5000	116645	121661	116329	57	121899	238	0	1	25
6.1.1	win	2020-04-21	22:07:01	1	1	1	USRTblock	1	USRT	28	600000	#ff0000	10pct	1	50pct	50pct	8000	121903	129911	121661	57	130181	270	0	1	26
6.1.1	win	2020-04-21	22:07:01	1	1	1	USRTblock	1	USRT	29	600000	#ff0000	10pct	1	50pct	50pct	6000	130185	136193	129911	57	136546	353	0	1	27
6.1.1	win	2020-04-21	22:07:01	1	1	1	USRTblock	1	USRT	30	600000	#ff0000	10pct	1	50pct	50pct	2000	136550	138560	136193	57	138956	396	0	1	28
6.1.1	win	2020-04-21	22:07:01	1	1	1	USRTblock	1	USRT	31	600000	#ff0000	10pct	1	50pct	50pct	6000	138959	144976	138560	57	145290	314	0	1	29
6.1.1	win	2020-04-21	22:07:01	1	1	1	USRTblock	1	USRT	32	600000	#ff0000	10pct	1	50pct	50pct	5000	145294	150309	144976	57	150617	308	0	1	30
6.1.1	win	2020-04-21	22:07:01	1	1	1	USRTblock	1	USRT	33	600000	#ff0000	10pct	1	50pct	50pct	4000	150621	154642	150309	57	154988	346	0	1	31
6.1.1	win	2020-04-21	22:07:01	1	1	1	USRTblock	1	USRT	34	600000	#ff0000	10pct	1	50pct	50pct	6000	154993	161008	154642	57	161317	309	0	1	32
6.1.1	win	2020-04-21	22:07:01	1	1	1	USRTblock	1	USRT	35	600000	#ff0000	10pct	1	50pct	50pct	3000	161321	164341	161008	57	164932	591	0	1	33
6.1.1	win	2020-04-21	22:07:01	1	1	1	USRTblock	1	USRT	36	600000	#ff0000	10pct	1	50pct	50pct	6000	164936	170940	164341	57	171234	294	0	1	34
6.1.1	win	2020-04-21	22:07:01	1	1	1	USRTblock	1	USRT	37	600000	#ff0000	10pct	1	50pct	50pct	8000	171237	179257	170940	57	179632	375	0	1	35
6.1.1	win	2020-04-21	22:07:01	1	1	1	USRTblock	1	USRT	38	600000	#ff0000	10pct	1	50pct	50pct	2000	179635	181655	179257	57	182091	436	0	1	36
6.1.1	win	2020-04-21	22:07:01	1	1	1	USRTblock	1	USRT	39	600000	#ff0000	10pct	1	50pct	50pct	2000	182094	184105	181655	57	184449	344	0	1	37
6.1.1	win	2020-04-21	22:07:01	1	1	1	USRTblock	1	USRT	40	600000	#ff0000	10pct	1	50pct	50pct	8000	184452	192472	184105	57	192743	271	0	1	38
6.1.1	win	2020-04-21	22:07:01	1	1	1	USRTblock	1	USRT	41	600000	#ff0000	10pct	1	50pct	50pct	8000	192747	200755	192472	57	201139	384	0	1	39
6.1.1	win	2020-04-21	22:07:01	1	1	1	USRTblock	1	USRT	42	600000	#ff0000	10pct	1	50pct	50pct	5000	201143	206153	200755	57	206540	387	0	1	40
6.1.1	win	2020-04-21	22:07:01	1	1	1	USRTblock	1	USRT	43	600000	#ff0000	10pct	1	50pct	50pct	2000	206544	208553	206153	57	208886	333	0	1	41
6.1.1	win	2020-04-21	22:07:01	1	1	1	USRTblock	1	USRT	44	600000	#ff0000	10pct	1	50pct	50pct	6000	208890	214902	208553	57	215247	345	0	1	42
6.1.1	win	2020-04-21	22:07:01	1	1	1	USRTblock	1	USRT	45	600000	#ff0000	10pct	1	50pct	50pct	5000	215250	220268	214902	57	220553	285	0	1	43
6.1.1	win	2020-04-21	22:07:01	1	1	1	USRTblock	1	USRT	46	600000	#ff0000	10pct	1	50pct	50pct	5000	220556	225568	220268	57	225966	398	0	1	44
6.1.1	win	2020-04-21	22:07:01	1	1	1	USRTblock	1	USRT	47	600000	#ff0000	10pct	1	50pct	50pct	4000	225969	229984	225568	57	230333	349	0	1	45
6.1.1	win	2020-04-21	22:07:01	1	1	1	USRTblock	1	USRT	48	600000	#ff0000	10pct	1	50pct	50pct	4000	230336	234351	229984	57	234630	279	0	1	46
6.1.1	win	2020-04-21	22:07:01	1	1	1	USRTblock	1	USRT	49	600000	#ff0000	10pct	1	50pct	50pct	5000	234633	239650	234351	57	239964	314	0	1	47
6.1.1	win	2020-04-21	22:07:01	1	1	1	USRTblock	1	USRT	50	600000	#ff0000	10pct	1	50pct	50pct	7000	239969	246983	239650	57	247284	301	0	1	48
6.1.1	win	2020-04-21	22:07:01	1	1	1	USRTblock	1	USRT	51	600000	#ff0000	10pct	1	50pct	50pct	2000	247287	249299	246983	57	249902	603	0	1	49
6.1.1	win	2020-04-21	22:07:01	1	1	1	USRTblock	1	USRT	52	600000	#ff0000	10pct	1	50pct	50pct	7000	249906	256915	249299	57	257190	275	0	1	50
6.1.1	win	2020-04-21	22:07:01	1	1	1	USRTblock	1	USRT	53	600000	#ff0000	10pct	1	50pct	50pct	8000	257193	265215	256915	57	265462	247	0	1	51
6.1.1	win	2020-04-21	22:07:01	1	1	1	USRTblock	1	USRT	54	600000	#ff0000	10pct	1	50pct	50pct	4000	265465	269480	265215	57	269813	333	0	1	52
6.1.1	win	2020-04-21	22:07:01	1	1	1	USRTblock	1	USRT	55	600000	#ff0000	10pct	1	50pct	50pct	3000	269816	272830	269480	57	273189	359	0	1	53
6.1.1	win	2020-04-21	22:07:01	1	1	1	USRTblock	1	USRT	56	600000	#ff0000	10pct	1	50pct	50pct	7000	273193	280212	272830	57	280585	373	0	1	54
6.1.1	win	2020-04-21	22:07:01	1	1	1	USRTblock	1	USRT	57	600000	#ff0000	10pct	1	50pct	50pct	3000	280588	283595	280212	57	283986	391	0	1	55
6.1.1	win	2020-04-21	22:07:01	1	1	1	USRTblock	1	USRT	58	600000	#ff0000	10pct	1	50pct	50pct	8000	283990	291995	283595	57	292266	271	0	1	56
6.1.1	win	2020-04-21	22:07:01	1	1	1	USRTblock	1	USRT	59	600000	#ff0000	10pct	1	50pct	50pct	4000	292269	296278	291995	57	296629	351	0	1	57
6.1.1	win	2020-04-21	22:07:01	1	1	1	USRTblock	1	USRT	60	600000	#ff0000	10pct	1	50pct	50pct	3000	296632	299644	296278	57	300106	462	0	1	58
6.1.1	win	2020-04-21	22:07:01	1	1	1	USRTblock	1	USRT	61	600000	#ff0000	10pct	1	50pct	50pct	7000	300110	307127	299644	57	307391	264	0	1	59
6.1.1	win	2020-04-21	22:07:01	1	1	1	USRTblock	1	USRT	62	600000	#ff0000	10pct	1	50pct	50pct	5000	307394	312410	307127	57	312712	302	0	1	60
6.1.1	win	2020-04-21	22:07:01	1	1	1	USRTblock	1	USRT	63	600000	#ff0000	10pct	1	50pct	50pct	7000	312715	-1	312410	57	319372	0	1	2	61
6.1.1	win	2020-04-21	22:07:01	1	1	1	USRTblock	1	USRT	64	600000	#ff0000	10pct	1	50pct	50pct	3000	319375	322391	-1	57	322755	364	0	2	62
6.1.1	win	2020-04-21	22:07:01	1	1	1	USRTblock	1	USRT	65	600000	#ff0000	10pct	1	50pct	50pct	2000	322758	324775	322391	57	325140	365	0	2	63
6.1.1	win	2020-04-21	22:07:01	1	1	1	USRTblock	1	USRT	66	600000	#ff0000	10pct	1	50pct	50pct	7000	325143	332157	324775	57	332529	372	0	2	64
6.1.1	win	2020-04-21	22:07:01	1	1	1	USRTblock	1	USRT	67	600000	#ff0000	10pct	1	50pct	50pct	8000	332533	340540	332157	57	340916	376	0	2	65
6.1.1	win	2020-04-21	22:07:01	1	1	1	USRTblock	1	USRT	68	600000	#ff0000	10pct	1	50pct	50pct	7000	340920	347940	340540	57	348306	366	0	2	66
6.1.1	win	2020-04-21	22:07:01	1	1	1	USRTblock	1	USRT	69	600000	#ff0000	10pct	1	50pct	50pct	6000	348311	354322	347940	57	354700	378	0	2	67
6.1.1	win	2020-04-21	22:07:01	1	1	1	USRTblock	1	USRT	70	600000	#ff0000	10pct	1	50pct	50pct	2000	354703	356721	354322	57	357096	375	0	2	68
6.1.1	win	2020-04-21	22:07:01	1	1	1	USRTblock	1	USRT	71	600000	#ff0000	10pct	1	50pct	50pct	7000	357100	364104	356721	57	364443	339	0	2	69
6.1.1	win	2020-04-21	22:07:01	1	1	1	USRTblock	1	USRT	72	600000	#ff0000	10pct	1	50pct	50pct	6000	364446	370454	364104	57	370743	289	0	2	70
6.1.1	win	2020-04-21	22:07:01	1	1	1	USRTblock	1	USRT	73	600000	#ff0000	10pct	1	50pct	50pct	2000	370747	372753	370454	57	373201	448	0	2	71
6.1.1	win	2020-04-21	22:07:01	1	1	1	USRTblock	1	USRT	74	600000	#ff0000	10pct	1	50pct	50pct	3000	373206	376219	372753	57	376668	449	0	2	72
6.1.1	win	2020-04-21	22:07:01	1	1	1	USRTblock	1	USRT	75	600000	#ff0000	10pct	1	50pct	50pct	4000	376672	380686	376219	57	380979	293	0	2	73
6.1.1	win	2020-04-21	22:07:01	1	1	1	USRTblock	1	USRT	76	600000	#ff0000	10pct	1	50pct	50pct	7000	380983	388002	380686	57	388395	393	0	2	74
6.1.1	win	2020-04-21	22:07:01	1	1	1	USRTblock	1	USRT	77	600000	#ff0000	10pct	1	50pct	50pct	3000	388399	391418	388002	57	391775	357	0	2	75
6.1.1	win	2020-04-21	22:07:01	1	1	1	USRTblock	1	USRT	78	600000	#ff0000	10pct	1	50pct	50pct	2000	391778	393784	391418	57	394110	326	0	2	76
6.1.1	win	2020-04-21	22:07:01	1	1	1	USRTblock	1	USRT	79	600000	#ff0000	10pct	1	50pct	50pct	2000	394114	396134	393784	57	396521	387	0	2	77
6.1.1	win	2020-04-21	22:07:01	1	1	1	USRTblock	1	USRT	80	600000	#ff0000	10pct	1	50pct	50pct	4000	396525	400533	396134	57	400849	316	0	2	78
6.1.1	win	2020-04-21	22:07:01	1	1	1	USRTblock	1	USRT	81	600000	#ff0000	10pct	1	50pct	50pct	5000	400852	405866	400533	57	406178	312	0	2	79
6.1.1	win	2020-04-21	22:07:01	1	1	1	USRTblock	1	USRT	82	600000	#ff0000	10pct	1	50pct	50pct	3000	406182	409200	405866	57	409610	410	0	2	80
6.1.1	win	2020-04-21	22:07:01	1	1	1	USRTblock	1	USRT	83	600000	#ff0000	10pct	1	50pct	50pct	2000	409613	411632	409200	57	411938	306	0	2	81
6.1.1	win	2020-04-21	22:07:01	1	1	1	USRTblock	1	USRT	84	600000	#ff0000	10pct	1	50pct	50pct	4000	411941	415948	411632	57	416360	412	0	2	82
6.1.1	win	2020-04-21	22:07:01	1	1	1	USRTblock	1	USRT	85	600000	#ff0000	10pct	1	50pct	50pct	5000	416363	421382	415948	57	421709	327	0	2	83
6.1.1	win	2020-04-21	22:07:01	1	1	1	USRTblock	1	USRT	86	600000	#ff0000	10pct	1	50pct	50pct	7000	421713	428731	421382	57	429030	299	0	2	84
6.1.1	win	2020-04-21	22:07:01	1	1	1	USRTblock	1	USRT	87	600000	#ff0000	10pct	1	50pct	50pct	5000	429034	434047	428731	57	434377	330	0	2	85
6.1.1	win	2020-04-21	22:07:01	1	1	1	USRTblock	1	USRT	88	600000	#ff0000	10pct	1	50pct	50pct	8000	434380	442397	434047	57	442702	305	0	2	86
6.1.1	win	2020-04-21	22:07:01	1	1	1	USRTblock	1	USRT	89	600000	#ff0000	10pct	1	50pct	50pct	8000	442706	450712	442397	57	451029	317	0	2	87
6.1.1	win	2020-04-21	22:07:01	1	1	1	USRTblock	1	USRT	90	600000	#ff0000	10pct	1	50pct	50pct	7000	451033	458045	450712	57	458355	310	0	2	88
6.1.1	win	2020-04-21	22:07:01	1	1	1	USRTblock	1	USRT	91	600000	#ff0000	10pct	1	50pct	50pct	6000	458358	464377	458045	57	464694	317	0	2	89
6.1.1	win	2020-04-21	22:07:01	1	1	1	USRTblock	1	USRT	92	600000	#ff0000	10pct	1	50pct	50pct	7000	464697	471711	464377	57	472067	356	0	2	90
6.1.1	win	2020-04-21	22:07:01	1	1	1	USRTblock	1	USRT	93	600000	#ff0000	10pct	1	50pct	50pct	7000	472071	479076	471711	57	479403	327	0	2	91
6.1.1	win	2020-04-21	22:07:01	1	1	1	USRTblock	1	USRT	94	600000	#ff0000	10pct	1	50pct	50pct	3000	479407	482426	479076	57	482855	429	0	2	92
6.1.1	win	2020-04-21	22:07:01	1	1	1	USRTblock	1	USRT	95	600000	#ff0000	10pct	1	50pct	50pct	4000	482859	486875	482426	57	487202	327	0	2	93
6.1.1	win	2020-04-21	22:07:01	1	1	1	USRTblock	1	USRT	96	600000	#ff0000	10pct	1	50pct	50pct	4000	487205	491225	486875	57	491570	345	0	2	94
6.1.1	win	2020-04-21	22:07:01	1	1	1	USRTblock	1	USRT	97	600000	#ff0000	10pct	1	50pct	50pct	7000	491574	498591	491225	57	498941	350	0	2	95
6.1.1	win	2020-04-21	22:07:01	1	1	1	USRTblock	1	USRT	98	600000	#ff0000	10pct	1	50pct	50pct	5000	498945	503956	498591	57	504285	329	0	2	96
6.1.1	win	2020-04-21	22:07:01	1	1	1	USRTblock	1	USRT	99	600000	#ff0000	10pct	1	50pct	50pct	2000	504288	506307	503956	57	506801	494	0	2	97
6.1.1	win	2020-04-21	22:07:01	1	1	1	USRTblock	1	USRT	100	600000	#ff0000	10pct	1	50pct	50pct	3000	506805	509822	506307	57	510160	338	0	2	98
6.1.1	win	2020-04-21	22:07:01	1	1	1	USRTblock	1	USRT	101	600000	#ff0000	10pct	1	50pct	50pct	6000	510165	-1	509822	57	515456	0	1	3	99
6.1.1	win	2020-04-21	22:07:01	1	1	1	USRTblock	1	USRT	102	600000	#ff0000	10pct	1	50pct	50pct	3000	515459	518472	-1	57	518735	263	0	3	100
6.1.1	win	2020-04-21	22:07:01	1	1	1	USRTblock	1	USRT	103	600000	#ff0000	10pct	1	50pct	50pct	5000	518739	523755	518472	57	524053	298	0	3	101
6.1.1	win	2020-04-21	22:07:01	1	1	1	USRTblock	1	USRT	104	600000	#ff0000	10pct	1	50pct	50pct	5000	524057	529071	523755	57	529336	265	0	3	102
6.1.1	win	2020-04-21	22:07:01	1	1	1	USRTblock	1	USRT	105	600000	#ff0000	10pct	1	50pct	50pct	8000	529340	537354	529071	57	537699	345	0	3	103
6.1.1	win	2020-04-21	22:07:01	1	1	1	USRTblock	1	USRT	106	600000	#ff0000	10pct	1	50pct	50pct	3000	537703	540720	537354	57	541073	353	0	3	104
6.1.1	win	2020-04-21	22:07:01	1	1	1	USRTblock	1	USRT	107	600000	#ff0000	10pct	1	50pct	50pct	6000	541077	547086	540720	57	547453	367	0	3	105
6.1.1	win	2020-04-21	22:07:01	1	1	1	USRTblock	1	USRT	108	600000	#ff0000	10pct	1	50pct	50pct	4000	547457	551469	547086	57	551860	391	0	3	106
6.1.1	win	2020-04-21	22:07:01	1	1	1	USRTblock	1	USRT	109	600000	#ff0000	10pct	1	50pct	50pct	8000	551863	559868	551469	57	560229	361	0	3	107
6.1.1	win	2020-04-21	22:07:01	1	1	1	USRTblock	1	USRT	110	600000	#ff0000	10pct	1	50pct	50pct	4000	560232	564251	559868	57	564614	363	0	3	108
6.1.1	win	2020-04-21	22:07:01	1	1	1	USRTblock	1	USRT	111	600000	#ff0000	10pct	1	50pct	50pct	2000	564617	566633	564251	57	566969	336	0	3	109
6.1.1	win	2020-04-21	22:07:01	1	1	1	USRTblock	1	USRT	112	600000	#ff0000	10pct	1	50pct	50pct	8000	566973	574984	566633	57	575323	339	0	3	110
6.1.1	win	2020-04-21	22:07:01	1	1	1	USRTblock	1	USRT	113	600000	#ff0000	10pct	1	50pct	50pct	5000	575326	580333	574984	57	580629	296	0	3	111
6.1.1	win	2020-04-21	22:07:01	1	1	1	USRTblock	1	USRT	114	600000	#ff0000	10pct	1	50pct	50pct	5000	580633	585649	580333	57	585968	319	0	3	112
6.1.1	win	2020-04-21	22:07:01	1	1	1	USRTblock	1	USRT	115	600000	#ff0000	10pct	1	50pct	50pct	8000	585971	593982	585649	57	594306	324	0	3	113
6.1.1	win	2020-04-21	22:07:01	1	1	1	USRTblock	1	USRT	116	600000	#ff0000	10pct	1	50pct	50pct	2000	594310	596330	593982	57	596827	497	0	3	114
6.1.1	win	2020-04-21	22:07:01	1	1	1	USRTblock	1	USRT	117	600000	#ff0000	10pct	1	50pct	50pct	4000	596831	600847	596330	57	601213	366	0	3	115
6.1.1	win	2020-04-21	22:07:01	1	1	1	USRTblock	1	USRT	118	600000	#ff0000	10pct	1	50pct	50pct	2000	601217	-1	600847	0	601376	0	1	4	116
