build	computer.platform	date	time	subject	group	sessionid	blockcode	blocknum	trialcode	trialnum	testduration	targetcolor	targetsize	fixed	targetx	targety	stiminterval	trialStart	shape.targetcircle.timestamp	lastCircleTimestamp	response	rt_elapsed	rt	EarlyResponse	countEarlyResponses	countResponses
6.1.1	win	2020-04-21	13:26:16	1	1	1	USRTblock	1	USRT	3	600000	#ff0000	10pct	1	50pct	50pct	4000	2668	6685	1848	57	6981	296	0	0	1
6.1.1	win	2020-04-21	13:26:16	1	1	1	USRTblock	1	USRT	4	600000	#ff0000	10pct	1	50pct	50pct	4000	6993	11001	6685	57	11251	250	0	0	2
6.1.1	win	2020-04-21	13:26:16	1	1	1	USRTblock	1	USRT	5	600000	#ff0000	10pct	1	50pct	50pct	6000	11254	17268	11001	57	17486	218	0	0	3
6.1.1	win	2020-04-21	13:26:16	1	1	1	USRTblock	1	USRT	6	600000	#ff0000	10pct	1	50pct	50pct	5000	17489	22500	17268	57	22780	280	0	0	4
6.1.1	win	2020-04-21	13:26:16	1	1	1	USRTblock	1	USRT	7	600000	#ff0000	10pct	1	50pct	50pct	3000	22784	25800	22500	57	26063	263	0	0	5
6.1.1	win	2020-04-21	13:26:16	1	1	1	USRTblock	1	USRT	8	600000	#ff0000	10pct	1	50pct	50pct	4000	26066	30082	25800	57	30345	263	0	0	6
6.1.1	win	2020-04-21	13:26:16	1	1	1	USRTblock	1	USRT	9	600000	#ff0000	10pct	1	50pct	50pct	5000	30349	35365	30082	57	35645	280	0	0	7
6.1.1	win	2020-04-21	13:26:16	1	1	1	USRTblock	1	USRT	10	600000	#ff0000	10pct	1	50pct	50pct	4000	35648	39665	35365	57	39956	291	0	0	8
6.1.1	win	2020-04-21	13:26:16	1	1	1	USRTblock	1	USRT	11	600000	#ff0000	10pct	1	50pct	50pct	8000	39960	-1	39665	57	43862	0	1	1	9
6.1.1	win	2020-04-21	13:26:16	1	1	1	USRTblock	1	USRT	12	600000	#ff0000	10pct	1	50pct	50pct	6000	43865	49881	-1	57	50117	236	0	1	10
6.1.1	win	2020-04-21	13:26:16	1	1	1	USRTblock	1	USRT	13	600000	#ff0000	10pct	1	50pct	50pct	5000	50121	55130	49881	57	55468	338	0	1	11
6.1.1	win	2020-04-21	13:26:16	1	1	1	USRTblock	1	USRT	14	600000	#ff0000	10pct	1	50pct	50pct	6000	55472	61480	55130	57	61745	265	0	1	12
6.1.1	win	2020-04-21	13:26:16	1	1	1	USRTblock	1	USRT	15	600000	#ff0000	10pct	1	50pct	50pct	6000	61748	67762	61480	57	68060	298	0	1	13
6.1.1	win	2020-04-21	13:26:16	1	1	1	USRTblock	1	USRT	16	600000	#ff0000	10pct	1	50pct	50pct	2000	68063	70078	67762	57	70447	369	0	1	14
6.1.1	win	2020-04-21	13:26:16	1	1	1	USRTblock	1	USRT	17	600000	#ff0000	10pct	1	50pct	50pct	4000	70451	74461	70078	57	74723	262	0	1	15
6.1.1	win	2020-04-21	13:26:16	1	1	1	USRTblock	1	USRT	18	600000	#ff0000	10pct	1	50pct	50pct	2000	74726	76744	74461	57	77046	302	0	1	16
6.1.1	win	2020-04-21	13:26:16	1	1	1	USRTblock	1	USRT	19	600000	#ff0000	10pct	1	50pct	50pct	2000	77050	79060	76744	57	79344	284	0	1	17
6.1.1	win	2020-04-21	13:26:16	1	1	1	USRTblock	1	USRT	20	600000	#ff0000	10pct	1	50pct	50pct	3000	79347	82361	79060	57	82691	330	0	1	18
6.1.1	win	2020-04-21	13:26:16	1	1	1	USRTblock	1	USRT	21	600000	#ff0000	10pct	1	50pct	50pct	6000	82694	88710	82361	57	88985	275	0	1	19
6.1.1	win	2020-04-21	13:26:16	1	1	1	USRTblock	1	USRT	22	600000	#ff0000	10pct	1	50pct	50pct	8000	88989	97010	88710	57	97303	293	0	1	20
6.1.1	win	2020-04-21	13:26:16	1	1	1	USRTblock	1	USRT	23	600000	#ff0000	10pct	1	50pct	50pct	6000	97306	103325	97010	57	103571	246	0	1	21
6.1.1	win	2020-04-21	13:26:16	1	1	1	USRTblock	1	USRT	24	600000	#ff0000	10pct	1	50pct	50pct	7000	103574	110591	103325	57	110875	284	0	1	22
6.1.1	win	2020-04-21	13:26:16	1	1	1	USRTblock	1	USRT	25	600000	#ff0000	10pct	1	50pct	50pct	8000	110878	118890	110591	57	119227	337	0	1	23
6.1.1	win	2020-04-21	13:26:16	1	1	1	USRTblock	1	USRT	26	600000	#ff0000	10pct	1	50pct	50pct	4000	119230	123240	118890	57	123803	563	0	1	24
6.1.1	win	2020-04-21	13:26:16	1	1	1	USRTblock	1	USRT	27	600000	#ff0000	10pct	1	50pct	50pct	8000	123807	131823	123240	57	132167	344	0	1	25
6.1.1	win	2020-04-21	13:26:16	1	1	1	USRTblock	1	USRT	28	600000	#ff0000	10pct	1	50pct	50pct	5000	132170	137189	131823	57	137505	316	0	1	26
6.1.1	win	2020-04-21	13:26:16	1	1	1	USRTblock	1	USRT	29	600000	#ff0000	10pct	1	50pct	50pct	6000	137508	143521	137189	57	143868	347	0	1	27
6.1.1	win	2020-04-21	13:26:16	1	1	1	USRTblock	1	USRT	30	600000	#ff0000	10pct	1	50pct	50pct	5000	143871	148887	143521	57	149146	259	0	1	28
6.1.1	win	2020-04-21	13:26:16	1	1	1	USRTblock	1	USRT	31	600000	#ff0000	10pct	1	50pct	50pct	7000	149149	156153	148887	57	156413	260	0	1	29
6.1.1	win	2020-04-21	13:26:16	1	1	1	USRTblock	1	USRT	32	600000	#ff0000	10pct	1	50pct	50pct	3000	156416	159436	156153	57	159729	293	0	1	30
6.1.1	win	2020-04-21	13:26:16	1	1	1	USRTblock	1	USRT	33	600000	#ff0000	10pct	1	50pct	50pct	7000	159733	166752	159436	57	167004	252	0	1	31
6.1.1	win	2020-04-21	13:26:16	1	1	1	USRTblock	1	USRT	34	600000	#ff0000	10pct	1	50pct	50pct	6000	167008	173019	166752	57	173296	277	0	1	32
6.1.1	win	2020-04-21	13:26:16	1	1	1	USRTblock	1	USRT	35	600000	#ff0000	10pct	1	50pct	50pct	3000	173300	176318	173019	57	176691	373	0	1	33
6.1.1	win	2020-04-21	13:26:16	1	1	1	USRTblock	1	USRT	36	600000	#ff0000	10pct	1	50pct	50pct	2000	176695	178701	176318	57	179030	329	0	1	34
6.1.1	win	2020-04-21	13:26:16	1	1	1	USRTblock	1	USRT	37	600000	#ff0000	10pct	1	50pct	50pct	5000	179033	184050	178701	57	184350	300	0	1	35
6.1.1	win	2020-04-21	13:26:16	1	1	1	USRTblock	1	USRT	38	600000	#ff0000	10pct	1	50pct	50pct	8000	184354	192367	184050	57	192616	249	0	1	36
6.1.1	win	2020-04-21	13:26:16	1	1	1	USRTblock	1	USRT	39	600000	#ff0000	10pct	1	50pct	50pct	6000	192620	198632	192367	57	198991	359	0	1	37
6.1.1	win	2020-04-21	13:26:16	1	1	1	USRTblock	1	USRT	40	600000	#ff0000	10pct	1	50pct	50pct	6000	198994	205015	198632	57	205330	315	0	1	38
6.1.1	win	2020-04-21	13:26:16	1	1	1	USRTblock	1	USRT	41	600000	#ff0000	10pct	1	50pct	50pct	5000	205333	210348	205015	57	210713	365	0	1	39
6.1.1	win	2020-04-21	13:26:16	1	1	1	USRTblock	1	USRT	42	600000	#ff0000	10pct	1	50pct	50pct	7000	210716	217731	210348	57	218161	430	0	1	40
6.1.1	win	2020-04-21	13:26:16	1	1	1	USRTblock	1	USRT	43	600000	#ff0000	10pct	1	50pct	50pct	5000	218166	223180	217731	57	223524	344	0	1	41
6.1.1	win	2020-04-21	13:26:16	1	1	1	USRTblock	1	USRT	44	600000	#ff0000	10pct	1	50pct	50pct	7000	223527	230546	223180	57	230883	337	0	1	42
6.1.1	win	2020-04-21	13:26:16	1	1	1	USRTblock	1	USRT	45	600000	#ff0000	10pct	1	50pct	50pct	3000	230887	233895	230546	57	234259	364	0	1	43
6.1.1	win	2020-04-21	13:26:16	1	1	1	USRTblock	1	USRT	46	600000	#ff0000	10pct	1	50pct	50pct	5000	234262	239278	233895	57	239621	343	0	1	44
6.1.1	win	2020-04-21	13:26:16	1	1	1	USRTblock	1	USRT	47	600000	#ff0000	10pct	1	50pct	50pct	6000	239624	245644	239278	57	245937	293	0	1	45
6.1.1	win	2020-04-21	13:26:16	1	1	1	USRTblock	1	USRT	48	600000	#ff0000	10pct	1	50pct	50pct	2000	245940	247960	245644	57	248304	344	0	1	46
6.1.1	win	2020-04-21	13:26:16	1	1	1	USRTblock	1	USRT	49	600000	#ff0000	10pct	1	50pct	50pct	7000	248307	255327	247960	57	255619	292	0	1	47
6.1.1	win	2020-04-21	13:26:16	1	1	1	USRTblock	1	USRT	50	600000	#ff0000	10pct	1	50pct	50pct	4000	255622	259642	255327	57	259987	345	0	1	48
6.1.1	win	2020-04-21	13:26:16	1	1	1	USRTblock	1	USRT	51	600000	#ff0000	10pct	1	50pct	50pct	8000	259991	268009	259642	57	268295	286	0	1	49
6.1.1	win	2020-04-21	13:26:16	1	1	1	USRTblock	1	USRT	52	600000	#ff0000	10pct	1	50pct	50pct	2000	268298	270308	268009	57	270753	445	0	1	50
6.1.1	win	2020-04-21	13:26:16	1	1	1	USRTblock	1	USRT	53	600000	#ff0000	10pct	1	50pct	50pct	2000	270757	272774	270308	57	273184	410	0	1	51
6.1.1	win	2020-04-21	13:26:16	1	1	1	USRTblock	1	USRT	54	600000	#ff0000	10pct	1	50pct	50pct	8000	273187	281207	272774	57	281520	313	0	1	52
6.1.1	win	2020-04-21	13:26:16	1	1	1	USRTblock	1	USRT	55	600000	#ff0000	10pct	1	50pct	50pct	5000	281524	286540	281207	57	287108	568	0	1	53
6.1.1	win	2020-04-21	13:26:16	1	1	1	USRTblock	1	USRT	56	600000	#ff0000	10pct	1	50pct	50pct	2000	287112	289122	286540	57	289721	599	0	1	54
6.1.1	win	2020-04-21	13:26:16	1	1	1	USRTblock	1	USRT	57	600000	#ff0000	10pct	1	50pct	50pct	6000	289724	295740	289122	57	296018	278	0	1	55
6.1.1	win	2020-04-21	13:26:16	1	1	1	USRTblock	1	USRT	58	600000	#ff0000	10pct	1	50pct	50pct	7000	296021	303039	295740	57	303341	302	0	1	56
6.1.1	win	2020-04-21	13:26:16	1	1	1	USRTblock	1	USRT	59	600000	#ff0000	10pct	1	50pct	50pct	4000	303344	307354	303039	57	307715	361	0	1	57
6.1.1	win	2020-04-21	13:26:16	1	1	1	USRTblock	1	USRT	60	600000	#ff0000	10pct	1	50pct	50pct	4000	307719	311737	307354	57	312170	433	0	1	58
6.1.1	win	2020-04-21	13:26:16	1	1	1	USRTblock	1	USRT	61	600000	#ff0000	10pct	1	50pct	50pct	6000	312173	318187	311737	57	318474	287	0	1	59
6.1.1	win	2020-04-21	13:26:16	1	1	1	USRTblock	1	USRT	62	600000	#ff0000	10pct	1	50pct	50pct	4000	318478	322487	318187	57	322829	342	0	1	60
6.1.1	win	2020-04-21	13:26:16	1	1	1	USRTblock	1	USRT	63	600000	#ff0000	10pct	1	50pct	50pct	5000	322833	327852	322487	57	328204	352	0	1	61
6.1.1	win	2020-04-21	13:26:16	1	1	1	USRTblock	1	USRT	64	600000	#ff0000	10pct	1	50pct	50pct	8000	328208	336219	327852	57	336511	292	0	1	62
6.1.1	win	2020-04-21	13:26:16	1	1	1	USRTblock	1	USRT	65	600000	#ff0000	10pct	1	50pct	50pct	6000	336514	342534	336219	57	342863	329	0	1	63
6.1.1	win	2020-04-21	13:26:16	1	1	1	USRTblock	1	USRT	66	600000	#ff0000	10pct	1	50pct	50pct	7000	342867	349884	342534	57	350296	412	0	1	64
6.1.1	win	2020-04-21	13:26:16	1	1	1	USRTblock	1	USRT	67	600000	#ff0000	10pct	1	50pct	50pct	5000	350300	355316	349884	57	355731	415	0	1	65
6.1.1	win	2020-04-21	13:26:16	1	1	1	USRTblock	1	USRT	68	600000	#ff0000	10pct	1	50pct	50pct	2000	355734	357749	355316	57	358092	343	0	1	66
6.1.1	win	2020-04-21	13:26:16	1	1	1	USRTblock	1	USRT	69	600000	#ff0000	10pct	1	50pct	50pct	3000	358096	361116	357749	57	361447	331	0	1	67
6.1.1	win	2020-04-21	13:26:16	1	1	1	USRTblock	1	USRT	70	600000	#ff0000	10pct	1	50pct	50pct	2000	361452	363465	361116	57	363768	303	0	1	68
6.1.1	win	2020-04-21	13:26:16	1	1	1	USRTblock	1	USRT	71	600000	#ff0000	10pct	1	50pct	50pct	5000	363772	368782	363465	57	369205	423	0	1	69
6.1.1	win	2020-04-21	13:26:16	1	1	1	USRTblock	1	USRT	72	600000	#ff0000	10pct	1	50pct	50pct	6000	369208	375215	368782	57	375595	380	0	1	70
6.1.1	win	2020-04-21	13:26:16	1	1	1	USRTblock	1	USRT	73	600000	#ff0000	10pct	1	50pct	50pct	3000	375600	378614	375215	57	378994	380	0	1	71
6.1.1	win	2020-04-21	13:26:16	1	1	1	USRTblock	1	USRT	74	600000	#ff0000	10pct	1	50pct	50pct	7000	378999	386013	378614	57	386495	482	0	1	72
6.1.1	win	2020-04-21	13:26:16	1	1	1	USRTblock	1	USRT	75	600000	#ff0000	10pct	1	50pct	50pct	4000	386499	390513	386013	57	390923	410	0	1	73
6.1.1	win	2020-04-21	13:26:16	1	1	1	USRTblock	1	USRT	76	600000	#ff0000	10pct	1	50pct	50pct	3000	390926	393945	390513	57	394563	618	0	1	74
6.1.1	win	2020-04-21	13:26:16	1	1	1	USRTblock	1	USRT	77	600000	#ff0000	10pct	1	50pct	50pct	7000	394568	401579	393945	57	401924	345	0	1	75
6.1.1	win	2020-04-21	13:26:16	1	1	1	USRTblock	1	USRT	78	600000	#ff0000	10pct	1	50pct	50pct	5000	401927	406945	401579	57	407282	337	0	1	76
6.1.1	win	2020-04-21	13:26:16	1	1	1	USRTblock	1	USRT	79	600000	#ff0000	10pct	1	50pct	50pct	8000	407287	415295	406945	57	415738	443	0	1	77
6.1.1	win	2020-04-21	13:26:16	1	1	1	USRTblock	1	USRT	80	600000	#ff0000	10pct	1	50pct	50pct	5000	415741	420760	415295	57	421096	336	0	1	78
6.1.1	win	2020-04-21	13:26:16	1	1	1	USRTblock	1	USRT	81	600000	#ff0000	10pct	1	50pct	50pct	7000	421100	428109	420760	57	428487	378	0	1	79
6.1.1	win	2020-04-21	13:26:16	1	1	1	USRTblock	1	USRT	82	600000	#ff0000	10pct	1	50pct	50pct	4000	428490	432508	428109	57	432834	326	0	1	80
6.1.1	win	2020-04-21	13:26:16	1	1	1	USRTblock	1	USRT	83	600000	#ff0000	10pct	1	50pct	50pct	6000	432838	438858	432508	57	439208	350	0	1	81
6.1.1	win	2020-04-21	13:26:16	1	1	1	USRTblock	1	USRT	84	600000	#ff0000	10pct	1	50pct	50pct	4000	439211	443224	438858	57	443536	312	0	1	82
6.1.1	win	2020-04-21	13:26:16	1	1	1	USRTblock	1	USRT	85	600000	#ff0000	10pct	1	50pct	50pct	6000	443539	449557	443224	57	449878	321	0	1	83
6.1.1	win	2020-04-21	13:26:16	1	1	1	USRTblock	1	USRT	86	600000	#ff0000	10pct	1	50pct	50pct	3000	449882	452890	449557	57	453233	343	0	1	84
6.1.1	win	2020-04-21	13:26:16	1	1	1	USRTblock	1	USRT	87	600000	#ff0000	10pct	1	50pct	50pct	4000	453237	457256	452890	57	457533	277	0	1	85
6.1.1	win	2020-04-21	13:26:16	1	1	1	USRTblock	1	USRT	88	600000	#ff0000	10pct	1	50pct	50pct	4000	457536	461556	457256	57	461948	392	0	1	86
6.1.1	win	2020-04-21	13:26:16	1	1	1	USRTblock	1	USRT	89	600000	#ff0000	10pct	1	50pct	50pct	6000	461951	467972	461556	57	468255	283	0	1	87
6.1.1	win	2020-04-21	13:26:16	1	1	1	USRTblock	1	USRT	90	600000	#ff0000	10pct	1	50pct	50pct	6000	468259	474271	467972	57	474745	474	0	1	88
6.1.1	win	2020-04-21	13:26:16	1	1	1	USRTblock	1	USRT	91	600000	#ff0000	10pct	1	50pct	50pct	7000	474749	481770	474271	57	482088	318	0	1	89
6.1.1	win	2020-04-21	13:26:16	1	1	1	USRTblock	1	USRT	92	600000	#ff0000	10pct	1	50pct	50pct	2000	482092	484103	481770	57	484430	327	0	1	90
6.1.1	win	2020-04-21	13:26:16	1	1	1	USRTblock	1	USRT	93	600000	#ff0000	10pct	1	50pct	50pct	8000	484434	492453	484103	57	492750	297	0	1	91
6.1.1	win	2020-04-21	13:26:16	1	1	1	USRTblock	1	USRT	94	600000	#ff0000	10pct	1	50pct	50pct	6000	492753	498769	492453	57	499216	447	0	1	92
6.1.1	win	2020-04-21	13:26:16	1	1	1	USRTblock	1	USRT	95	600000	#ff0000	10pct	1	50pct	50pct	2000	499219	501235	498769	57	501929	694	0	1	93
6.1.1	win	2020-04-21	13:26:16	1	1	1	USRTblock	1	USRT	96	600000	#ff0000	10pct	1	50pct	50pct	3000	501932	504951	501235	57	505346	395	0	1	94
6.1.1	win	2020-04-21	13:26:16	1	1	1	USRTblock	1	USRT	97	600000	#ff0000	10pct	1	50pct	50pct	4000	505350	509368	504951	57	509632	264	0	1	95
6.1.1	win	2020-04-21	13:26:16	1	1	1	USRTblock	1	USRT	98	600000	#ff0000	10pct	1	50pct	50pct	8000	509636	517651	509368	57	518002	351	0	1	96
6.1.1	win	2020-04-21	13:26:16	1	1	1	USRTblock	1	USRT	99	600000	#ff0000	10pct	1	50pct	50pct	6000	518006	524016	517651	57	524358	342	0	1	97
6.1.1	win	2020-04-21	13:26:16	1	1	1	USRTblock	1	USRT	100	600000	#ff0000	10pct	1	50pct	50pct	8000	524361	532382	524016	57	532720	338	0	1	98
6.1.1	win	2020-04-21	13:26:16	1	1	1	USRTblock	1	USRT	101	600000	#ff0000	10pct	1	50pct	50pct	8000	532723	540732	532382	57	541068	336	0	1	99
6.1.1	win	2020-04-21	13:26:16	1	1	1	USRTblock	1	USRT	102	600000	#ff0000	10pct	1	50pct	50pct	5000	541072	546080	540732	57	546414	334	0	1	100
6.1.1	win	2020-04-21	13:26:16	1	1	1	USRTblock	1	USRT	103	600000	#ff0000	10pct	1	50pct	50pct	3000	546417	549430	546080	57	549802	372	0	1	101
6.1.1	win	2020-04-21	13:26:16	1	1	1	USRTblock	1	USRT	104	600000	#ff0000	10pct	1	50pct	50pct	8000	549805	557813	549430	57	558143	330	0	1	102
6.1.1	win	2020-04-21	13:26:16	1	1	1	USRTblock	1	USRT	105	600000	#ff0000	10pct	1	50pct	50pct	5000	558146	563162	557813	57	563467	305	0	1	103
6.1.1	win	2020-04-21	13:26:16	1	1	1	USRTblock	1	USRT	106	600000	#ff0000	10pct	1	50pct	50pct	7000	563471	570479	563162	57	570873	394	0	1	104
6.1.1	win	2020-04-21	13:26:16	1	1	1	USRTblock	1	USRT	107	600000	#ff0000	10pct	1	50pct	50pct	6000	570876	576895	570479	57	577236	341	0	1	105
6.1.1	win	2020-04-21	13:26:16	1	1	1	USRTblock	1	USRT	108	600000	#ff0000	10pct	1	50pct	50pct	5000	577239	582261	576895	57	582600	339	0	1	106
6.1.1	win	2020-04-21	13:26:16	1	1	1	USRTblock	1	USRT	109	600000	#ff0000	10pct	1	50pct	50pct	4000	582603	586610	582261	57	586967	357	0	1	107
6.1.1	win	2020-04-21	13:26:16	1	1	1	USRTblock	1	USRT	110	600000	#ff0000	10pct	1	50pct	50pct	6000	586971	592976	586610	57	593383	407	0	1	108
6.1.1	win	2020-04-21	13:26:16	1	1	1	USRTblock	1	USRT	111	600000	#ff0000	10pct	1	50pct	50pct	3000	593386	596392	592976	57	596810	418	0	1	109
6.1.1	win	2020-04-21	13:26:16	1	1	1	USRTblock	1	USRT	112	600000	#ff0000	10pct	1	50pct	50pct	4000	596813	600826	596392	0	596973	-3853	0	1	110
