build	computer.platform	date	time	subject	group	sessionid	blockcode	blocknum	trialcode	trialnum	testduration	targetcolor	targetsize	fixed	targetx	targety	stiminterval	trialStart	shape.targetcircle.timestamp	lastCircleTimestamp	response	rt_elapsed	rt	EarlyResponse	countEarlyResponses	countResponses
6.1.1	win	2020-04-22	22:27:24	1	1	1	USRTblock	1	USRT	3	600000	#ff0000	10pct	1	50pct	50pct	7000	2436	9450	1713	57	9693	243	0	0	1
6.1.1	win	2020-04-22	22:27:24	1	1	1	USRTblock	1	USRT	4	600000	#ff0000	10pct	1	50pct	50pct	8000	9724	17733	9450	57	18033	300	0	0	2
6.1.1	win	2020-04-22	22:27:24	1	1	1	USRTblock	1	USRT	5	600000	#ff0000	10pct	1	50pct	50pct	4000	18037	22048	17733	57	22335	287	0	0	3
6.1.1	win	2020-04-22	22:27:24	1	1	1	USRTblock	1	USRT	6	600000	#ff0000	10pct	1	50pct	50pct	5000	22340	27348	22048	57	27592	244	0	0	4
6.1.1	win	2020-04-22	22:27:24	1	1	1	USRTblock	1	USRT	7	600000	#ff0000	10pct	1	50pct	50pct	4000	27597	31614	27348	57	31906	292	0	0	5
6.1.1	win	2020-04-22	22:27:24	1	1	1	USRTblock	1	USRT	8	600000	#ff0000	10pct	1	50pct	50pct	8000	31911	39930	31614	57	40194	264	0	0	6
6.1.1	win	2020-04-22	22:27:24	1	1	1	USRTblock	1	USRT	9	600000	#ff0000	10pct	1	50pct	50pct	6000	40199	46213	39930	57	46609	396	0	0	7
6.1.1	win	2020-04-22	22:27:24	1	1	1	USRTblock	1	USRT	10	600000	#ff0000	10pct	1	50pct	50pct	2000	46614	48629	46213	57	49040	411	0	0	8
6.1.1	win	2020-04-22	22:27:24	1	1	1	USRTblock	1	USRT	11	600000	#ff0000	10pct	1	50pct	50pct	5000	49045	54062	48629	57	54449	387	0	0	9
6.1.1	win	2020-04-22	22:27:24	1	1	1	USRTblock	1	USRT	12	600000	#ff0000	10pct	1	50pct	50pct	6000	54453	60462	54062	57	60865	403	0	0	10
6.1.1	win	2020-04-22	22:27:24	1	1	1	USRTblock	1	USRT	13	600000	#ff0000	10pct	1	50pct	50pct	4000	60870	64877	60462	57	65243	366	0	0	11
6.1.1	win	2020-04-22	22:27:24	1	1	1	USRTblock	1	USRT	14	600000	#ff0000	10pct	1	50pct	50pct	4000	65247	69261	64877	57	69574	313	0	0	12
6.1.1	win	2020-04-22	22:27:24	1	1	1	USRTblock	1	USRT	15	600000	#ff0000	10pct	1	50pct	50pct	4000	69579	73594	69261	57	73843	249	0	0	13
6.1.1	win	2020-04-22	22:27:24	1	1	1	USRTblock	1	USRT	16	600000	#ff0000	10pct	1	50pct	50pct	3000	73847	76860	73594	57	77179	319	0	0	14
6.1.1	win	2020-04-22	22:27:24	1	1	1	USRTblock	1	USRT	17	600000	#ff0000	10pct	1	50pct	50pct	8000	77184	85193	76860	57	85504	311	0	0	15
6.1.1	win	2020-04-22	22:27:24	1	1	1	USRTblock	1	USRT	18	600000	#ff0000	10pct	1	50pct	50pct	8000	85508	93525	85193	57	93827	302	0	0	16
6.1.1	win	2020-04-22	22:27:24	1	1	1	USRTblock	1	USRT	19	600000	#ff0000	10pct	1	50pct	50pct	7000	93832	100840	93525	57	102405	1565	0	0	17
6.1.1	win	2020-04-22	22:27:24	1	1	1	USRTblock	1	USRT	20	600000	#ff0000	10pct	1	50pct	50pct	7000	102410	109423	100840	57	110429	1006	0	0	18
6.1.1	win	2020-04-22	22:27:24	1	1	1	USRTblock	1	USRT	21	600000	#ff0000	10pct	1	50pct	50pct	7000	110434	117439	109423	57	117712	273	0	0	19
6.1.1	win	2020-04-22	22:27:24	1	1	1	USRTblock	1	USRT	22	600000	#ff0000	10pct	1	50pct	50pct	8000	117718	125738	117439	57	126009	271	0	0	20
6.1.1	win	2020-04-22	22:27:24	1	1	1	USRTblock	1	USRT	23	600000	#ff0000	10pct	1	50pct	50pct	7000	126013	133021	125738	57	133316	295	0	0	21
6.1.1	win	2020-04-22	22:27:24	1	1	1	USRTblock	1	USRT	24	600000	#ff0000	10pct	1	50pct	50pct	7000	133321	140336	133021	57	140602	266	0	0	22
6.1.1	win	2020-04-22	22:27:24	1	1	1	USRTblock	1	USRT	25	600000	#ff0000	10pct	1	50pct	50pct	7000	140606	147619	140336	57	147909	290	0	0	23
6.1.1	win	2020-04-22	22:27:24	1	1	1	USRTblock	1	USRT	26	600000	#ff0000	10pct	1	50pct	50pct	8000	147913	155935	147619	57	156243	308	0	0	24
6.1.1	win	2020-04-22	22:27:24	1	1	1	USRTblock	1	USRT	27	600000	#ff0000	10pct	1	50pct	50pct	3000	156248	159268	155935	57	159592	324	0	0	25
6.1.1	win	2020-04-22	22:27:24	1	1	1	USRTblock	1	USRT	28	600000	#ff0000	10pct	1	50pct	50pct	2000	159597	161617	159268	57	161937	320	0	0	26
6.1.1	win	2020-04-22	22:27:24	1	1	1	USRTblock	1	USRT	29	600000	#ff0000	10pct	1	50pct	50pct	4000	161941	165950	161617	57	166241	291	0	0	27
6.1.1	win	2020-04-22	22:27:24	1	1	1	USRTblock	1	USRT	30	600000	#ff0000	10pct	1	50pct	50pct	3000	166246	169267	165950	57	169568	301	0	0	28
6.1.1	win	2020-04-22	22:27:24	1	1	1	USRTblock	1	USRT	31	600000	#ff0000	10pct	1	50pct	50pct	5000	169572	174583	169267	57	174874	291	0	0	29
6.1.1	win	2020-04-22	22:27:24	1	1	1	USRTblock	1	USRT	32	600000	#ff0000	10pct	1	50pct	50pct	4000	174879	178900	174583	57	179208	308	0	0	30
6.1.1	win	2020-04-22	22:27:24	1	1	1	USRTblock	1	USRT	33	600000	#ff0000	10pct	1	50pct	50pct	5000	179212	184232	178900	57	184556	324	0	0	31
6.1.1	win	2020-04-22	22:27:24	1	1	1	USRTblock	1	USRT	34	600000	#ff0000	10pct	1	50pct	50pct	7000	184560	191582	184232	57	191914	332	0	0	32
6.1.1	win	2020-04-22	22:27:24	1	1	1	USRTblock	1	USRT	35	600000	#ff0000	10pct	1	50pct	50pct	7000	191919	198930	191582	57	199173	243	0	0	33
6.1.1	win	2020-04-22	22:27:24	1	1	1	USRTblock	1	USRT	36	600000	#ff0000	10pct	1	50pct	50pct	8000	199177	207196	198930	57	207475	279	0	0	34
6.1.1	win	2020-04-22	22:27:24	1	1	1	USRTblock	1	USRT	37	600000	#ff0000	10pct	1	50pct	50pct	7000	207479	214496	207196	57	214783	287	0	0	35
6.1.1	win	2020-04-22	22:27:24	1	1	1	USRTblock	1	USRT	38	600000	#ff0000	10pct	1	50pct	50pct	4000	214787	218796	214496	57	219105	309	0	0	36
6.1.1	win	2020-04-22	22:27:24	1	1	1	USRTblock	1	USRT	39	600000	#ff0000	10pct	1	50pct	50pct	5000	219110	224128	218796	57	224414	286	0	0	37
6.1.1	win	2020-04-22	22:27:24	1	1	1	USRTblock	1	USRT	40	600000	#ff0000	10pct	1	50pct	50pct	4000	224419	228427	224128	57	228736	309	0	0	38
6.1.1	win	2020-04-22	22:27:24	1	1	1	USRTblock	1	USRT	41	600000	#ff0000	10pct	1	50pct	50pct	7000	228740	235760	228427	57	236063	303	0	0	39
6.1.1	win	2020-04-22	22:27:24	1	1	1	USRTblock	1	USRT	42	600000	#ff0000	10pct	1	50pct	50pct	4000	236067	240076	235760	57	240418	342	0	0	40
6.1.1	win	2020-04-22	22:27:24	1	1	1	USRTblock	1	USRT	43	600000	#ff0000	10pct	1	50pct	50pct	7000	240422	247443	240076	57	247766	323	0	0	41
6.1.1	win	2020-04-22	22:27:24	1	1	1	USRTblock	1	USRT	44	600000	#ff0000	10pct	1	50pct	50pct	7000	247771	254792	247443	57	255074	282	0	0	42
6.1.1	win	2020-04-22	22:27:24	1	1	1	USRTblock	1	USRT	45	600000	#ff0000	10pct	1	50pct	50pct	3000	255079	258091	254792	57	258461	370	0	0	43
6.1.1	win	2020-04-22	22:27:24	1	1	1	USRTblock	1	USRT	46	600000	#ff0000	10pct	1	50pct	50pct	5000	258465	263474	258091	57	263804	330	0	0	44
6.1.1	win	2020-04-22	22:27:24	1	1	1	USRTblock	1	USRT	47	600000	#ff0000	10pct	1	50pct	50pct	7000	263808	270824	263474	57	271197	373	0	0	45
6.1.1	win	2020-04-22	22:27:24	1	1	1	USRTblock	1	USRT	48	600000	#ff0000	10pct	1	50pct	50pct	7000	271201	278223	270824	57	278640	417	0	0	46
6.1.1	win	2020-04-22	22:27:24	1	1	1	USRTblock	1	USRT	49	600000	#ff0000	10pct	1	50pct	50pct	3000	278644	281655	278223	57	282029	374	0	0	47
6.1.1	win	2020-04-22	22:27:24	1	1	1	USRTblock	1	USRT	50	600000	#ff0000	10pct	1	50pct	50pct	6000	282034	288055	281655	57	288360	305	0	0	48
6.1.1	win	2020-04-22	22:27:24	1	1	1	USRTblock	1	USRT	51	600000	#ff0000	10pct	1	50pct	50pct	2000	288364	290371	288055	57	291094	723	0	0	49
6.1.1	win	2020-04-22	22:27:24	1	1	1	USRTblock	1	USRT	52	600000	#ff0000	10pct	1	50pct	50pct	4000	291099	295104	290371	57	295441	337	0	0	50
6.1.1	win	2020-04-22	22:27:24	1	1	1	USRTblock	1	USRT	53	600000	#ff0000	10pct	1	50pct	50pct	4000	295446	299454	295104	57	299688	234	0	0	51
6.1.1	win	2020-04-22	22:27:24	1	1	1	USRTblock	1	USRT	54	600000	#ff0000	10pct	1	50pct	50pct	7000	299692	306704	299454	57	306980	276	0	0	52
6.1.1	win	2020-04-22	22:27:24	1	1	1	USRTblock	1	USRT	55	600000	#ff0000	10pct	1	50pct	50pct	6000	306985	313003	306704	57	313279	276	0	0	53
6.1.1	win	2020-04-22	22:27:24	1	1	1	USRTblock	1	USRT	56	600000	#ff0000	10pct	1	50pct	50pct	8000	313283	321302	313003	57	321600	298	0	0	54
6.1.1	win	2020-04-22	22:27:24	1	1	1	USRTblock	1	USRT	57	600000	#ff0000	10pct	1	50pct	50pct	7000	321604	328618	321302	57	328883	265	0	0	55
6.1.1	win	2020-04-22	22:27:24	1	1	1	USRTblock	1	USRT	58	600000	#ff0000	10pct	1	50pct	50pct	3000	328887	331900	328618	57	332371	471	0	0	56
6.1.1	win	2020-04-22	22:27:24	1	1	1	USRTblock	1	USRT	59	600000	#ff0000	10pct	1	50pct	50pct	2000	332375	334384	331900	57	334693	309	0	0	57
6.1.1	win	2020-04-22	22:27:24	1	1	1	USRTblock	1	USRT	60	600000	#ff0000	10pct	1	50pct	50pct	3000	334698	337717	334384	57	338064	347	0	0	58
6.1.1	win	2020-04-22	22:27:24	1	1	1	USRTblock	1	USRT	61	600000	#ff0000	10pct	1	50pct	50pct	4000	338068	-1	337717	57	338753	0	1	1	59
6.1.1	win	2020-04-22	22:27:24	1	1	1	USRTblock	1	USRT	62	600000	#ff0000	10pct	1	50pct	50pct	2000	338757	340766	-1	57	341209	443	0	1	60
6.1.1	win	2020-04-22	22:27:24	1	1	1	USRTblock	1	USRT	63	600000	#ff0000	10pct	1	50pct	50pct	4000	341213	345233	340766	57	345532	299	0	1	61
6.1.1	win	2020-04-22	22:27:24	1	1	1	USRTblock	1	USRT	64	600000	#ff0000	10pct	1	50pct	50pct	8000	345536	353549	345233	57	353805	256	0	1	62
6.1.1	win	2020-04-22	22:27:24	1	1	1	USRTblock	1	USRT	65	600000	#ff0000	10pct	1	50pct	50pct	5000	353809	358832	353549	57	359181	349	0	1	63
6.1.1	win	2020-04-22	22:27:24	1	1	1	USRTblock	1	USRT	66	600000	#ff0000	10pct	1	50pct	50pct	7000	359185	366197	358832	57	366467	270	0	1	64
6.1.1	win	2020-04-22	22:27:24	1	1	1	USRTblock	1	USRT	67	600000	#ff0000	10pct	1	50pct	50pct	8000	366472	374480	366197	57	374783	303	0	1	65
6.1.1	win	2020-04-22	22:27:24	1	1	1	USRTblock	1	USRT	68	600000	#ff0000	10pct	1	50pct	50pct	3000	374787	377796	374480	57	378113	317	0	1	66
6.1.1	win	2020-04-22	22:27:24	1	1	1	USRTblock	1	USRT	69	600000	#ff0000	10pct	1	50pct	50pct	6000	378117	384129	377796	57	384390	261	0	1	67
6.1.1	win	2020-04-22	22:27:24	1	1	1	USRTblock	1	USRT	70	600000	#ff0000	10pct	1	50pct	50pct	7000	384395	391411	384129	57	391680	269	0	1	68
6.1.1	win	2020-04-22	22:27:24	1	1	1	USRTblock	1	USRT	71	600000	#ff0000	10pct	1	50pct	50pct	2000	391684	393694	391411	57	394083	389	0	1	69
6.1.1	win	2020-04-22	22:27:24	1	1	1	USRTblock	1	USRT	72	600000	#ff0000	10pct	1	50pct	50pct	5000	394087	399094	393694	57	399372	278	0	1	70
6.1.1	win	2020-04-22	22:27:24	1	1	1	USRTblock	1	USRT	73	600000	#ff0000	10pct	1	50pct	50pct	3000	399377	402394	399094	57	402736	342	0	1	71
6.1.1	win	2020-04-22	22:27:24	1	1	1	USRTblock	1	USRT	74	600000	#ff0000	10pct	1	50pct	50pct	5000	402741	407760	402394	57	408013	253	0	1	72
6.1.1	win	2020-04-22	22:27:24	1	1	1	USRTblock	1	USRT	75	600000	#ff0000	10pct	1	50pct	50pct	8000	408018	416026	407760	57	416299	273	0	1	73
6.1.1	win	2020-04-22	22:27:24	1	1	1	USRTblock	1	USRT	76	600000	#ff0000	10pct	1	50pct	50pct	7000	416304	423326	416026	57	423582	256	0	1	74
6.1.1	win	2020-04-22	22:27:24	1	1	1	USRTblock	1	USRT	77	600000	#ff0000	10pct	1	50pct	50pct	6000	423586	429607	423326	57	429873	266	0	1	75
6.1.1	win	2020-04-22	22:27:24	1	1	1	USRTblock	1	USRT	78	600000	#ff0000	10pct	1	50pct	50pct	8000	429911	437924	429607	57	438232	308	0	1	76
6.1.1	win	2020-04-22	22:27:24	1	1	1	USRTblock	1	USRT	79	600000	#ff0000	10pct	1	50pct	50pct	6000	438236	444256	437924	57	444537	281	0	1	77
6.1.1	win	2020-04-22	22:27:24	1	1	1	USRTblock	1	USRT	80	600000	#ff0000	10pct	1	50pct	50pct	6000	444541	450555	444256	57	450872	317	0	1	78
6.1.1	win	2020-04-22	22:27:24	1	1	1	USRTblock	1	USRT	81	600000	#ff0000	10pct	1	50pct	50pct	3000	450877	453888	450555	57	454358	470	0	1	79
6.1.1	win	2020-04-22	22:27:24	1	1	1	USRTblock	1	USRT	82	600000	#ff0000	10pct	1	50pct	50pct	3000	454362	457371	453888	57	457707	336	0	1	80
6.1.1	win	2020-04-22	22:27:24	1	1	1	USRTblock	1	USRT	83	600000	#ff0000	10pct	1	50pct	50pct	3000	457711	460721	457371	57	461036	315	0	1	81
6.1.1	win	2020-04-22	22:27:24	1	1	1	USRTblock	1	USRT	84	600000	#ff0000	10pct	1	50pct	50pct	4000	461040	465054	460721	57	465343	289	0	1	82
6.1.1	win	2020-04-22	22:27:24	1	1	1	USRTblock	1	USRT	85	600000	#ff0000	10pct	1	50pct	50pct	5000	465347	470353	465054	57	470612	259	0	1	83
6.1.1	win	2020-04-22	22:27:24	1	1	1	USRTblock	1	USRT	86	600000	#ff0000	10pct	1	50pct	50pct	2000	470616	472636	470353	57	473004	368	0	1	84
6.1.1	win	2020-04-22	22:27:24	1	1	1	USRTblock	1	USRT	87	600000	#ff0000	10pct	1	50pct	50pct	5000	473009	478019	472636	57	478329	310	0	1	85
6.1.1	win	2020-04-22	22:27:24	1	1	1	USRTblock	1	USRT	88	600000	#ff0000	10pct	1	50pct	50pct	6000	478334	484353	478019	57	484651	298	0	1	86
6.1.1	win	2020-04-22	22:27:24	1	1	1	USRTblock	1	USRT	89	600000	#ff0000	10pct	1	50pct	50pct	6000	484656	490668	484353	57	490987	319	0	1	87
6.1.1	win	2020-04-22	22:27:24	1	1	1	USRTblock	1	USRT	90	600000	#ff0000	10pct	1	50pct	50pct	8000	490992	499001	490668	57	499280	279	0	1	88
6.1.1	win	2020-04-22	22:27:24	1	1	1	USRTblock	1	USRT	91	600000	#ff0000	10pct	1	50pct	50pct	6000	499284	505301	499001	57	505618	317	0	1	89
6.1.1	win	2020-04-22	22:27:24	1	1	1	USRTblock	1	USRT	92	600000	#ff0000	10pct	1	50pct	50pct	7000	505622	512649	505301	57	512920	271	0	1	90
6.1.1	win	2020-04-22	22:27:24	1	1	1	USRTblock	1	USRT	93	600000	#ff0000	10pct	1	50pct	50pct	6000	512925	518932	512649	57	519236	304	0	1	91
6.1.1	win	2020-04-22	22:27:24	1	1	1	USRTblock	1	USRT	94	600000	#ff0000	10pct	1	50pct	50pct	3000	519240	522248	518932	57	522595	347	0	1	92
6.1.1	win	2020-04-22	22:27:24	1	1	1	USRTblock	1	USRT	95	600000	#ff0000	10pct	1	50pct	50pct	2000	522599	524614	522248	57	525022	408	0	1	93
6.1.1	win	2020-04-22	22:27:24	1	1	1	USRTblock	1	USRT	96	600000	#ff0000	10pct	1	50pct	50pct	8000	525026	533047	524614	57	533354	307	0	1	94
6.1.1	win	2020-04-22	22:27:24	1	1	1	USRTblock	1	USRT	97	600000	#ff0000	10pct	1	50pct	50pct	8000	533359	541381	533047	57	541694	313	0	1	95
6.1.1	win	2020-04-22	22:27:24	1	1	1	USRTblock	1	USRT	98	600000	#ff0000	10pct	1	50pct	50pct	6000	541698	547712	541381	57	548040	328	0	1	96
6.1.1	win	2020-04-22	22:27:24	1	1	1	USRTblock	1	USRT	99	600000	#ff0000	10pct	1	50pct	50pct	7000	548044	555062	547712	57	555363	301	0	1	97
6.1.1	win	2020-04-22	22:27:24	1	1	1	USRTblock	1	USRT	100	600000	#ff0000	10pct	1	50pct	50pct	4000	555367	559378	555062	57	559700	322	0	1	98
6.1.1	win	2020-04-22	22:27:24	1	1	1	USRTblock	1	USRT	101	600000	#ff0000	10pct	1	50pct	50pct	3000	559704	562710	559378	57	563030	320	0	1	99
6.1.1	win	2020-04-22	22:27:24	1	1	1	USRTblock	1	USRT	102	600000	#ff0000	10pct	1	50pct	50pct	2000	563034	565044	562710	57	565393	349	0	1	100
6.1.1	win	2020-04-22	22:27:24	1	1	1	USRTblock	1	USRT	103	600000	#ff0000	10pct	1	50pct	50pct	8000	565397	573410	565044	57	573674	264	0	1	101
6.1.1	win	2020-04-22	22:27:24	1	1	1	USRTblock	1	USRT	104	600000	#ff0000	10pct	1	50pct	50pct	6000	573678	579693	573410	57	580062	369	0	1	102
6.1.1	win	2020-04-22	22:27:24	1	1	1	USRTblock	1	USRT	105	600000	#ff0000	10pct	1	50pct	50pct	6000	580066	586075	579693	57	586370	295	0	1	103
6.1.1	win	2020-04-22	22:27:24	1	1	1	USRTblock	1	USRT	106	600000	#ff0000	10pct	1	50pct	50pct	8000	586374	594392	586075	57	594646	254	0	1	104
6.1.1	win	2020-04-22	22:27:24	1	1	1	USRTblock	1	USRT	107	600000	#ff0000	10pct	1	50pct	50pct	7000	594652	-1	594392	0	594789	0	1	2	105
