build	computer.platform	date	time	subject	group	sessionid	blockcode	blocknum	trialcode	trialnum	testduration	targetcolor	targetsize	fixed	targetx	targety	stiminterval	trialStart	shape.targetcircle.timestamp	lastCircleTimestamp	response	rt_elapsed	rt	EarlyResponse	countEarlyResponses	countResponses
6.1.1	win	2020-04-21	22:48:08	1	1	1	USRTblock	1	USRT	3	600000	#ff0000	10pct	1	50pct	50pct	8000	4576	12584	3798	57	12868	284	0	0	1
6.1.1	win	2020-04-21	22:48:08	1	1	1	USRTblock	1	USRT	4	600000	#ff0000	10pct	1	50pct	50pct	7000	12880	19901	12584	57	20327	426	0	0	2
6.1.1	win	2020-04-21	22:48:08	1	1	1	USRTblock	1	USRT	5	600000	#ff0000	10pct	1	50pct	50pct	5000	20331	25350	19901	57	25955	605	0	0	3
6.1.1	win	2020-04-21	22:48:08	1	1	1	USRTblock	1	USRT	6	600000	#ff0000	10pct	1	50pct	50pct	4000	25959	29965	25350	57	30287	322	0	0	4
6.1.1	win	2020-04-21	22:48:08	1	1	1	USRTblock	1	USRT	7	600000	#ff0000	10pct	1	50pct	50pct	7000	30291	37298	29965	57	37579	281	0	0	5
6.1.1	win	2020-04-21	22:48:08	1	1	1	USRTblock	1	USRT	8	600000	#ff0000	10pct	1	50pct	50pct	6000	37582	43597	37298	57	43940	343	0	0	6
6.1.1	win	2020-04-21	22:48:08	1	1	1	USRTblock	1	USRT	9	600000	#ff0000	10pct	1	50pct	50pct	8000	43944	51963	43597	57	52225	262	0	0	7
6.1.1	win	2020-04-21	22:48:08	1	1	1	USRTblock	1	USRT	10	600000	#ff0000	10pct	1	50pct	50pct	4000	52229	56246	51963	57	56599	353	0	0	8
6.1.1	win	2020-04-21	22:48:08	1	1	1	USRTblock	1	USRT	11	600000	#ff0000	10pct	1	50pct	50pct	8000	56602	64612	56246	57	64879	267	0	0	9
6.1.1	win	2020-04-21	22:48:08	1	1	1	USRTblock	1	USRT	12	600000	#ff0000	10pct	1	50pct	50pct	2000	64882	66894	64612	57	67273	379	0	0	10
6.1.1	win	2020-04-21	22:48:08	1	1	1	USRTblock	1	USRT	13	600000	#ff0000	10pct	1	50pct	50pct	8000	67277	75295	66894	57	75559	264	0	0	11
6.1.1	win	2020-04-21	22:48:08	1	1	1	USRTblock	1	USRT	14	600000	#ff0000	10pct	1	50pct	50pct	2000	75562	77577	75295	57	77908	331	0	0	12
6.1.1	win	2020-04-21	22:48:08	1	1	1	USRTblock	1	USRT	15	600000	#ff0000	10pct	1	50pct	50pct	6000	77911	83927	77577	57	84199	272	0	0	13
6.1.1	win	2020-04-21	22:48:08	1	1	1	USRTblock	1	USRT	16	600000	#ff0000	10pct	1	50pct	50pct	5000	84203	89210	83927	57	89494	284	0	0	14
6.1.1	win	2020-04-21	22:48:08	1	1	1	USRTblock	1	USRT	17	600000	#ff0000	10pct	1	50pct	50pct	6000	89498	95509	89210	57	95852	343	0	0	15
6.1.1	win	2020-04-21	22:48:08	1	1	1	USRTblock	1	USRT	18	600000	#ff0000	10pct	1	50pct	50pct	2000	95855	97875	95509	57	98282	407	0	0	16
6.1.1	win	2020-04-21	22:48:08	1	1	1	USRTblock	1	USRT	19	600000	#ff0000	10pct	1	50pct	50pct	5000	98285	103291	97875	57	103646	355	0	0	17
6.1.1	win	2020-04-21	22:48:08	1	1	1	USRTblock	1	USRT	20	600000	#ff0000	10pct	1	50pct	50pct	4000	103650	107657	103291	57	108030	373	0	0	18
6.1.1	win	2020-04-21	22:48:08	1	1	1	USRTblock	1	USRT	21	600000	#ff0000	10pct	1	50pct	50pct	3000	108033	111041	107657	57	111348	307	0	0	19
6.1.1	win	2020-04-21	22:48:08	1	1	1	USRTblock	1	USRT	22	600000	#ff0000	10pct	1	50pct	50pct	3000	111352	114357	111041	57	114868	511	0	0	20
6.1.1	win	2020-04-21	22:48:08	1	1	1	USRTblock	1	USRT	23	600000	#ff0000	10pct	1	50pct	50pct	4000	114872	118890	114357	57	119279	389	0	0	21
6.1.1	win	2020-04-21	22:48:08	1	1	1	USRTblock	1	USRT	24	600000	#ff0000	10pct	1	50pct	50pct	8000	119283	127289	118890	57	127579	290	0	0	22
6.1.1	win	2020-04-21	22:48:08	1	1	1	USRTblock	1	USRT	25	600000	#ff0000	10pct	1	50pct	50pct	6000	127582	133589	127289	57	133884	295	0	0	23
6.1.1	win	2020-04-21	22:48:08	1	1	1	USRTblock	1	USRT	26	600000	#ff0000	10pct	1	50pct	50pct	2000	133887	135904	133589	57	136239	335	0	0	24
6.1.1	win	2020-04-21	22:48:08	1	1	1	USRTblock	1	USRT	27	600000	#ff0000	10pct	1	50pct	50pct	6000	136242	142254	135904	57	142584	330	0	0	25
6.1.1	win	2020-04-21	22:48:08	1	1	1	USRTblock	1	USRT	28	600000	#ff0000	10pct	1	50pct	50pct	2000	142587	144603	142254	57	144964	361	0	0	26
6.1.1	win	2020-04-21	22:48:08	1	1	1	USRTblock	1	USRT	29	600000	#ff0000	10pct	1	50pct	50pct	4000	144967	148986	144603	57	149289	303	0	0	27
6.1.1	win	2020-04-21	22:48:08	1	1	1	USRTblock	1	USRT	30	600000	#ff0000	10pct	1	50pct	50pct	8000	149292	157303	148986	57	157608	305	0	0	28
6.1.1	win	2020-04-21	22:48:08	1	1	1	USRTblock	1	USRT	31	600000	#ff0000	10pct	1	50pct	50pct	3000	157611	160619	157303	57	160970	351	0	0	29
6.1.1	win	2020-04-21	22:48:08	1	1	1	USRTblock	1	USRT	32	600000	#ff0000	10pct	1	50pct	50pct	8000	160974	168985	160619	57	169267	282	0	0	30
6.1.1	win	2020-04-21	22:48:08	1	1	1	USRTblock	1	USRT	33	600000	#ff0000	10pct	1	50pct	50pct	7000	169270	176284	168985	57	176639	355	0	0	31
6.1.1	win	2020-04-21	22:48:08	1	1	1	USRTblock	1	USRT	34	600000	#ff0000	10pct	1	50pct	50pct	7000	176642	183650	176284	57	183977	327	0	0	32
6.1.1	win	2020-04-21	22:48:08	1	1	1	USRTblock	1	USRT	35	600000	#ff0000	10pct	1	50pct	50pct	8000	183981	191999	183650	57	192304	305	0	0	33
6.1.1	win	2020-04-21	22:48:08	1	1	1	USRTblock	1	USRT	36	600000	#ff0000	10pct	1	50pct	50pct	3000	192307	195315	191999	57	195670	355	0	0	34
6.1.1	win	2020-04-21	22:48:08	1	1	1	USRTblock	1	USRT	37	600000	#ff0000	10pct	1	50pct	50pct	5000	195673	200682	195315	57	201077	395	0	0	35
6.1.1	win	2020-04-21	22:48:08	1	1	1	USRTblock	1	USRT	38	600000	#ff0000	10pct	1	50pct	50pct	6000	201081	207098	200682	57	207408	310	0	0	36
6.1.1	win	2020-04-21	22:48:08	1	1	1	USRTblock	1	USRT	39	600000	#ff0000	10pct	1	50pct	50pct	3000	207412	210430	207098	57	210737	307	0	0	37
6.1.1	win	2020-04-21	22:48:08	1	1	1	USRTblock	1	USRT	40	600000	#ff0000	10pct	1	50pct	50pct	2000	210742	212747	210430	57	213085	338	0	0	38
6.1.1	win	2020-04-21	22:48:08	1	1	1	USRTblock	1	USRT	41	600000	#ff0000	10pct	1	50pct	50pct	4000	213089	217097	212747	57	217373	276	0	0	39
6.1.1	win	2020-04-21	22:48:08	1	1	1	USRTblock	1	USRT	42	600000	#ff0000	10pct	1	50pct	50pct	6000	217377	223396	217097	57	223695	299	0	0	40
6.1.1	win	2020-04-21	22:48:08	1	1	1	USRTblock	1	USRT	43	600000	#ff0000	10pct	1	50pct	50pct	2000	223698	225712	223396	57	226031	319	0	0	41
6.1.1	win	2020-04-21	22:48:08	1	1	1	USRTblock	1	USRT	44	600000	#ff0000	10pct	1	50pct	50pct	7000	226034	233045	225712	57	233307	262	0	0	42
6.1.1	win	2020-04-21	22:48:08	1	1	1	USRTblock	1	USRT	45	600000	#ff0000	10pct	1	50pct	50pct	8000	233311	241328	233045	57	241647	319	0	0	43
6.1.1	win	2020-04-21	22:48:08	1	1	1	USRTblock	1	USRT	46	600000	#ff0000	10pct	1	50pct	50pct	6000	241651	247661	241328	57	247969	308	0	0	44
6.1.1	win	2020-04-21	22:48:08	1	1	1	USRTblock	1	USRT	47	600000	#ff0000	10pct	1	50pct	50pct	5000	247973	252993	247661	57	253296	303	0	0	45
6.1.1	win	2020-04-21	22:48:08	1	1	1	USRTblock	1	USRT	48	600000	#ff0000	10pct	1	50pct	50pct	6000	253300	259309	252993	57	259590	281	0	0	46
6.1.1	win	2020-04-21	22:48:08	1	1	1	USRTblock	1	USRT	49	600000	#ff0000	10pct	1	50pct	50pct	7000	259593	266609	259309	57	266963	354	0	0	47
6.1.1	win	2020-04-21	22:48:08	1	1	1	USRTblock	1	USRT	50	600000	#ff0000	10pct	1	50pct	50pct	7000	266966	273974	266609	57	274268	294	0	0	48
6.1.1	win	2020-04-21	22:48:08	1	1	1	USRTblock	1	USRT	51	600000	#ff0000	10pct	1	50pct	50pct	7000	274271	281290	273974	57	281633	343	0	0	49
6.1.1	win	2020-04-21	22:48:08	1	1	1	USRTblock	1	USRT	52	600000	#ff0000	10pct	1	50pct	50pct	4000	281636	285656	281290	57	285969	313	0	0	50
6.1.1	win	2020-04-21	22:48:08	1	1	1	USRTblock	1	USRT	53	600000	#ff0000	10pct	1	50pct	50pct	4000	285972	289990	285656	57	290369	379	0	0	51
6.1.1	win	2020-04-21	22:48:08	1	1	1	USRTblock	1	USRT	54	600000	#ff0000	10pct	1	50pct	50pct	4000	290374	294389	289990	57	294718	329	0	0	52
6.1.1	win	2020-04-21	22:48:08	1	1	1	USRTblock	1	USRT	55	600000	#ff0000	10pct	1	50pct	50pct	5000	294721	299738	294389	57	300094	356	0	0	53
6.1.1	win	2020-04-21	22:48:08	1	1	1	USRTblock	1	USRT	56	600000	#ff0000	10pct	1	50pct	50pct	4000	300097	304104	299738	57	304450	346	0	0	54
6.1.1	win	2020-04-21	22:48:08	1	1	1	USRTblock	1	USRT	57	600000	#ff0000	10pct	1	50pct	50pct	3000	304453	307470	304104	57	307836	366	0	0	55
6.1.1	win	2020-04-21	22:48:08	1	1	1	USRTblock	1	USRT	58	600000	#ff0000	10pct	1	50pct	50pct	3000	307840	310854	307470	57	311244	390	0	0	56
6.1.1	win	2020-04-21	22:48:08	1	1	1	USRTblock	1	USRT	59	600000	#ff0000	10pct	1	50pct	50pct	2000	311248	313253	310854	57	313570	317	0	0	57
6.1.1	win	2020-04-21	22:48:08	1	1	1	USRTblock	1	USRT	60	600000	#ff0000	10pct	1	50pct	50pct	6000	313574	319587	313253	57	319914	327	0	0	58
6.1.1	win	2020-04-21	22:48:08	1	1	1	USRTblock	1	USRT	61	600000	#ff0000	10pct	1	50pct	50pct	6000	319918	325936	319587	57	326248	312	0	0	59
6.1.1	win	2020-04-21	22:48:08	1	1	1	USRTblock	1	USRT	62	600000	#ff0000	10pct	1	50pct	50pct	4000	326251	330269	325936	57	330591	322	0	0	60
6.1.1	win	2020-04-21	22:48:08	1	1	1	USRTblock	1	USRT	63	600000	#ff0000	10pct	1	50pct	50pct	7000	330594	337601	330269	57	337898	297	0	0	61
6.1.1	win	2020-04-21	22:48:08	1	1	1	USRTblock	1	USRT	64	600000	#ff0000	10pct	1	50pct	50pct	2000	337902	339918	337601	57	340288	370	0	0	62
6.1.1	win	2020-04-21	22:48:08	1	1	1	USRTblock	1	USRT	65	600000	#ff0000	10pct	1	50pct	50pct	7000	340292	347300	339918	57	347559	259	0	0	63
6.1.1	win	2020-04-21	22:48:08	1	1	1	USRTblock	1	USRT	66	600000	#ff0000	10pct	1	50pct	50pct	4000	347563	351583	347300	57	351866	283	0	0	64
6.1.1	win	2020-04-21	22:48:08	1	1	1	USRTblock	1	USRT	67	600000	#ff0000	10pct	1	50pct	50pct	8000	351871	359882	351583	57	360157	275	0	0	65
6.1.1	win	2020-04-21	22:48:08	1	1	1	USRTblock	1	USRT	68	600000	#ff0000	10pct	1	50pct	50pct	5000	360161	365182	359882	57	365462	280	0	0	66
6.1.1	win	2020-04-21	22:48:08	1	1	1	USRTblock	1	USRT	69	600000	#ff0000	10pct	1	50pct	50pct	7000	365466	372481	365182	57	372797	316	0	0	67
6.1.1	win	2020-04-21	22:48:08	1	1	1	USRTblock	1	USRT	70	600000	#ff0000	10pct	1	50pct	50pct	7000	372801	379814	372481	57	380109	295	0	0	68
6.1.1	win	2020-04-21	22:48:08	1	1	1	USRTblock	1	USRT	71	600000	#ff0000	10pct	1	50pct	50pct	7000	380113	387130	379814	57	387446	316	0	0	69
6.1.1	win	2020-04-21	22:48:08	1	1	1	USRTblock	1	USRT	72	600000	#ff0000	10pct	1	50pct	50pct	5000	387451	392462	387130	57	392865	403	0	0	70
6.1.1	win	2020-04-21	22:48:08	1	1	1	USRTblock	1	USRT	73	600000	#ff0000	10pct	1	50pct	50pct	6000	392869	398878	392462	57	399196	318	0	0	71
6.1.1	win	2020-04-21	22:48:08	1	1	1	USRTblock	1	USRT	74	600000	#ff0000	10pct	1	50pct	50pct	6000	399200	405211	398878	57	405528	317	0	0	72
6.1.1	win	2020-04-21	22:48:08	1	1	1	USRTblock	1	USRT	75	600000	#ff0000	10pct	1	50pct	50pct	5000	405531	410544	405211	57	410880	336	0	0	73
6.1.1	win	2020-04-21	22:48:08	1	1	1	USRTblock	1	USRT	76	600000	#ff0000	10pct	1	50pct	50pct	3000	410884	413894	410544	57	414253	359	0	0	74
6.1.1	win	2020-04-21	22:48:08	1	1	1	USRTblock	1	USRT	77	600000	#ff0000	10pct	1	50pct	50pct	3000	414256	417276	413894	57	417601	325	0	0	75
6.1.1	win	2020-04-21	22:48:08	1	1	1	USRTblock	1	USRT	78	600000	#ff0000	10pct	1	50pct	50pct	7000	417605	424609	417276	57	424912	303	0	0	76
6.1.1	win	2020-04-21	22:48:08	1	1	1	USRTblock	1	USRT	79	600000	#ff0000	10pct	1	50pct	50pct	4000	424916	428925	424609	57	429563	638	0	0	77
6.1.1	win	2020-04-21	22:48:08	1	1	1	USRTblock	1	USRT	80	600000	#ff0000	10pct	1	50pct	50pct	7000	429567	436575	428925	57	436886	311	0	0	78
6.1.1	win	2020-04-21	22:48:08	1	1	1	USRTblock	1	USRT	81	600000	#ff0000	10pct	1	50pct	50pct	5000	436890	441907	436575	57	442215	308	0	0	79
6.1.1	win	2020-04-21	22:48:08	1	1	1	USRTblock	1	USRT	82	600000	#ff0000	10pct	1	50pct	50pct	3000	442218	445223	441907	57	445713	490	0	0	80
6.1.1	win	2020-04-21	22:48:08	1	1	1	USRTblock	1	USRT	83	600000	#ff0000	10pct	1	50pct	50pct	7000	445717	452723	445223	57	452984	261	0	0	81
6.1.1	win	2020-04-21	22:48:08	1	1	1	USRTblock	1	USRT	84	600000	#ff0000	10pct	1	50pct	50pct	7000	452987	460006	452723	57	460259	253	0	0	82
6.1.1	win	2020-04-21	22:48:08	1	1	1	USRTblock	1	USRT	85	600000	#ff0000	10pct	1	50pct	50pct	2000	460263	462272	460006	57	462636	364	0	0	83
6.1.1	win	2020-04-21	22:48:08	1	1	1	USRTblock	1	USRT	86	600000	#ff0000	10pct	1	50pct	50pct	8000	462639	470655	462272	57	470951	296	0	0	84
6.1.1	win	2020-04-21	22:48:08	1	1	1	USRTblock	1	USRT	87	600000	#ff0000	10pct	1	50pct	50pct	6000	470955	476971	470655	57	477270	299	0	0	85
6.1.1	win	2020-04-21	22:48:08	1	1	1	USRTblock	1	USRT	88	600000	#ff0000	10pct	1	50pct	50pct	6000	477274	483287	476971	57	483610	323	0	0	86
6.1.1	win	2020-04-21	22:48:08	1	1	1	USRTblock	1	USRT	89	600000	#ff0000	10pct	1	50pct	50pct	8000	483613	491619	483287	57	491892	273	0	0	87
6.1.1	win	2020-04-21	22:48:08	1	1	1	USRTblock	1	USRT	90	600000	#ff0000	10pct	1	50pct	50pct	3000	491896	494902	491619	57	495281	379	0	0	88
6.1.1	win	2020-04-21	22:48:08	1	1	1	USRTblock	1	USRT	91	600000	#ff0000	10pct	1	50pct	50pct	8000	495286	503301	494902	57	503669	368	0	0	89
6.1.1	win	2020-04-21	22:48:08	1	1	1	USRTblock	1	USRT	92	600000	#ff0000	10pct	1	50pct	50pct	2000	503673	505684	503301	57	506060	376	0	0	90
6.1.1	win	2020-04-21	22:48:08	1	1	1	USRTblock	1	USRT	93	600000	#ff0000	10pct	1	50pct	50pct	8000	506063	514084	505684	57	514364	280	0	0	91
6.1.1	win	2020-04-21	22:48:08	1	1	1	USRTblock	1	USRT	94	600000	#ff0000	10pct	1	50pct	50pct	8000	514367	522383	514084	57	522706	323	0	0	92
6.1.1	win	2020-04-21	22:48:08	1	1	1	USRTblock	1	USRT	95	600000	#ff0000	10pct	1	50pct	50pct	6000	522711	528732	522383	57	529172	440	0	0	93
6.1.1	win	2020-04-21	22:48:08	1	1	1	USRTblock	1	USRT	96	600000	#ff0000	10pct	1	50pct	50pct	2000	529175	531181	528732	57	531586	405	0	0	94
6.1.1	win	2020-04-21	22:48:08	1	1	1	USRTblock	1	USRT	97	600000	#ff0000	10pct	1	50pct	50pct	3000	531590	534598	531181	57	534939	341	0	0	95
6.1.1	win	2020-04-21	22:48:08	1	1	1	USRTblock	1	USRT	98	600000	#ff0000	10pct	1	50pct	50pct	6000	534942	540948	534598	57	541286	338	0	0	96
6.1.1	win	2020-04-21	22:48:08	1	1	1	USRTblock	1	USRT	99	600000	#ff0000	10pct	1	50pct	50pct	5000	541289	546297	540948	57	546839	542	0	0	97
6.1.1	win	2020-04-21	22:48:08	1	1	1	USRTblock	1	USRT	100	600000	#ff0000	10pct	1	50pct	50pct	8000	546843	554863	546297	57	555121	258	0	0	98
6.1.1	win	2020-04-21	22:48:08	1	1	1	USRTblock	1	USRT	101	600000	#ff0000	10pct	1	50pct	50pct	2000	555124	557129	554863	57	557528	399	0	0	99
6.1.1	win	2020-04-21	22:48:08	1	1	1	USRTblock	1	USRT	102	600000	#ff0000	10pct	1	50pct	50pct	6000	557531	563546	557129	57	563834	288	0	0	100
6.1.1	win	2020-04-21	22:48:08	1	1	1	USRTblock	1	USRT	103	600000	#ff0000	10pct	1	50pct	50pct	4000	563839	567845	563546	57	568177	332	0	0	101
6.1.1	win	2020-04-21	22:48:08	1	1	1	USRTblock	1	USRT	104	600000	#ff0000	10pct	1	50pct	50pct	8000	568181	576194	567845	57	576480	286	0	0	102
6.1.1	win	2020-04-21	22:48:08	1	1	1	USRTblock	1	USRT	105	600000	#ff0000	10pct	1	50pct	50pct	2000	576484	578493	576194	57	579060	567	0	0	103
6.1.1	win	2020-04-21	22:48:08	1	1	1	USRTblock	1	USRT	106	600000	#ff0000	10pct	1	50pct	50pct	6000	579064	585077	578493	57	585342	265	0	0	104
6.1.1	win	2020-04-21	22:48:08	1	1	1	USRTblock	1	USRT	107	600000	#ff0000	10pct	1	50pct	50pct	2000	585345	587359	585077	57	587735	376	0	0	105
6.1.1	win	2020-04-21	22:48:08	1	1	1	USRTblock	1	USRT	108	600000	#ff0000	10pct	1	50pct	50pct	8000	587739	595759	587359	57	596057	298	0	0	106
6.1.1	win	2020-04-21	22:48:08	1	1	1	USRTblock	1	USRT	109	600000	#ff0000	10pct	1	50pct	50pct	7000	596061	-1	595759	0	596159	0	1	1	107
