build	computer.platform	date	time	subject	group	sessionid	blockcode	blocknum	trialcode	trialnum	testduration	targetcolor	targetsize	fixed	targetx	targety	stiminterval	trialStart	shape.targetcircle.timestamp	lastCircleTimestamp	response	rt_elapsed	rt	EarlyResponse	countEarlyResponses	countResponses
6.1.1	win	2020-04-21	16:07:58	1	1	1	USRTblock	1	USRT	3	600000	#ff0000	10pct	1	50pct	50pct	2000	3166	5175	2405	57	5481	306	0	0	1
6.1.1	win	2020-04-21	16:07:58	1	1	1	USRTblock	1	USRT	4	600000	#ff0000	10pct	1	50pct	50pct	4000	5514	9524	5175	57	9795	271	0	0	2
6.1.1	win	2020-04-21	16:07:58	1	1	1	USRTblock	1	USRT	5	600000	#ff0000	10pct	1	50pct	50pct	5000	9799	14807	9524	57	15028	221	0	0	3
6.1.1	win	2020-04-21	16:07:58	1	1	1	USRTblock	1	USRT	6	600000	#ff0000	10pct	1	50pct	50pct	3000	15032	18040	14807	57	18463	423	0	0	4
6.1.1	win	2020-04-21	16:07:58	1	1	1	USRTblock	1	USRT	7	600000	#ff0000	10pct	1	50pct	50pct	7000	18466	25473	18040	57	25961	488	0	0	5
6.1.1	win	2020-04-21	16:07:58	1	1	1	USRTblock	1	USRT	8	600000	#ff0000	10pct	1	50pct	50pct	2000	25964	27972	25473	57	28405	433	0	0	6
6.1.1	win	2020-04-21	16:07:58	1	1	1	USRTblock	1	USRT	9	600000	#ff0000	10pct	1	50pct	50pct	7000	28408	35421	27972	57	35749	328	0	0	7
6.1.1	win	2020-04-21	16:07:58	1	1	1	USRTblock	1	USRT	10	600000	#ff0000	10pct	1	50pct	50pct	5000	35787	40804	35421	57	41110	306	0	0	8
6.1.1	win	2020-04-21	16:07:58	1	1	1	USRTblock	1	USRT	11	600000	#ff0000	10pct	1	50pct	50pct	2000	41113	43121	40804	57	43555	434	0	0	9
6.1.1	win	2020-04-21	16:07:58	1	1	1	USRTblock	1	USRT	12	600000	#ff0000	10pct	1	50pct	50pct	7000	43559	50570	43121	57	51012	442	0	0	10
6.1.1	win	2020-04-21	16:07:58	1	1	1	USRTblock	1	USRT	13	600000	#ff0000	10pct	1	50pct	50pct	3000	51016	54036	50570	57	54405	369	0	0	11
6.1.1	win	2020-04-21	16:07:58	1	1	1	USRTblock	1	USRT	14	600000	#ff0000	10pct	1	50pct	50pct	2000	54408	56419	54036	57	56867	448	0	0	12
6.1.1	win	2020-04-21	16:07:58	1	1	1	USRTblock	1	USRT	15	600000	#ff0000	10pct	1	50pct	50pct	7000	56870	63886	56419	57	64243	357	0	0	13
6.1.1	win	2020-04-21	16:07:58	1	1	1	USRTblock	1	USRT	16	600000	#ff0000	10pct	1	50pct	50pct	6000	64246	70252	63886	57	70604	352	0	0	14
6.1.1	win	2020-04-21	16:07:58	1	1	1	USRTblock	1	USRT	17	600000	#ff0000	10pct	1	50pct	50pct	4000	70608	74617	70252	57	74924	307	0	0	15
6.1.1	win	2020-04-21	16:07:58	1	1	1	USRTblock	1	USRT	18	600000	#ff0000	10pct	1	50pct	50pct	6000	74927	80934	74617	57	81316	382	0	0	16
6.1.1	win	2020-04-21	16:07:58	1	1	1	USRTblock	1	USRT	19	600000	#ff0000	10pct	1	50pct	50pct	7000	81319	88333	80934	57	88671	338	0	0	17
6.1.1	win	2020-04-21	16:07:58	1	1	1	USRTblock	1	USRT	20	600000	#ff0000	10pct	1	50pct	50pct	6000	88674	94682	88333	57	95133	451	0	0	18
6.1.1	win	2020-04-21	16:07:58	1	1	1	USRTblock	1	USRT	21	600000	#ff0000	10pct	1	50pct	50pct	6000	95137	101149	94682	57	101572	423	0	0	19
6.1.1	win	2020-04-21	16:07:58	1	1	1	USRTblock	1	USRT	22	600000	#ff0000	10pct	1	50pct	50pct	4000	101576	105581	101149	57	106069	488	0	0	20
6.1.1	win	2020-04-21	16:07:58	1	1	1	USRTblock	1	USRT	23	600000	#ff0000	10pct	1	50pct	50pct	5000	106072	111081	105581	57	111456	375	0	0	21
6.1.1	win	2020-04-21	16:07:58	1	1	1	USRTblock	1	USRT	24	600000	#ff0000	10pct	1	50pct	50pct	6000	111460	117480	111081	57	117855	375	0	0	22
6.1.1	win	2020-04-21	16:07:58	1	1	1	USRTblock	1	USRT	25	600000	#ff0000	10pct	1	50pct	50pct	4000	117859	121880	117480	57	122260	380	0	0	23
6.1.1	win	2020-04-21	16:07:58	1	1	1	USRTblock	1	USRT	26	600000	#ff0000	10pct	1	50pct	50pct	7000	122264	129279	121880	57	129670	391	0	0	24
6.1.1	win	2020-04-21	16:07:58	1	1	1	USRTblock	1	USRT	27	600000	#ff0000	10pct	1	50pct	50pct	2000	129675	131695	129279	57	132074	379	0	0	25
6.1.1	win	2020-04-21	16:07:58	1	1	1	USRTblock	1	USRT	28	600000	#ff0000	10pct	1	50pct	50pct	6000	132077	138095	131695	57	138398	303	0	0	26
6.1.1	win	2020-04-21	16:07:58	1	1	1	USRTblock	1	USRT	29	600000	#ff0000	10pct	1	50pct	50pct	7000	138401	145411	138095	57	145693	282	0	0	27
6.1.1	win	2020-04-21	16:07:58	1	1	1	USRTblock	1	USRT	30	600000	#ff0000	10pct	1	50pct	50pct	6000	145696	151710	145411	57	152019	309	0	0	28
6.1.1	win	2020-04-21	16:07:58	1	1	1	USRTblock	1	USRT	31	600000	#ff0000	10pct	1	50pct	50pct	4000	152023	156043	151710	57	156452	409	0	0	29
6.1.1	win	2020-04-21	16:07:58	1	1	1	USRTblock	1	USRT	32	600000	#ff0000	10pct	1	50pct	50pct	5000	156455	161475	156043	57	161839	364	0	0	30
6.1.1	win	2020-04-21	16:07:58	1	1	1	USRTblock	1	USRT	33	600000	#ff0000	10pct	1	50pct	50pct	8000	161842	169858	161475	57	170180	322	0	0	31
6.1.1	win	2020-04-21	16:07:58	1	1	1	USRTblock	1	USRT	34	600000	#ff0000	10pct	1	50pct	50pct	6000	170183	176191	169858	57	176715	524	0	0	32
6.1.1	win	2020-04-21	16:07:58	1	1	1	USRTblock	1	USRT	35	600000	#ff0000	10pct	1	50pct	50pct	7000	176719	183724	176191	57	184095	371	0	0	33
6.1.1	win	2020-04-21	16:07:58	1	1	1	USRTblock	1	USRT	36	600000	#ff0000	10pct	1	50pct	50pct	6000	184098	190106	183724	57	190476	370	0	0	34
6.1.1	win	2020-04-21	16:07:58	1	1	1	USRTblock	1	USRT	37	600000	#ff0000	10pct	1	50pct	50pct	3000	190480	193489	190106	57	193861	372	0	0	35
6.1.1	win	2020-04-21	16:07:58	1	1	1	USRTblock	1	USRT	38	600000	#ff0000	10pct	1	50pct	50pct	2000	193864	195872	193489	57	196225	353	0	0	36
6.1.1	win	2020-04-21	16:07:58	1	1	1	USRTblock	1	USRT	39	600000	#ff0000	10pct	1	50pct	50pct	2000	196229	198238	195872	57	198671	433	0	0	37
6.1.1	win	2020-04-21	16:07:58	1	1	1	USRTblock	1	USRT	40	600000	#ff0000	10pct	1	50pct	50pct	4000	198675	202688	198238	57	203002	314	0	0	38
6.1.1	win	2020-04-21	16:07:58	1	1	1	USRTblock	1	USRT	41	600000	#ff0000	10pct	1	50pct	50pct	3000	203005	206021	202688	57	206470	449	0	0	39
6.1.1	win	2020-04-21	16:07:58	1	1	1	USRTblock	1	USRT	42	600000	#ff0000	10pct	1	50pct	50pct	5000	206474	211487	206021	57	211784	297	0	0	40
6.1.1	win	2020-04-21	16:07:58	1	1	1	USRTblock	1	USRT	43	600000	#ff0000	10pct	1	50pct	50pct	7000	211788	218803	211487	57	219199	396	0	0	41
6.1.1	win	2020-04-21	16:07:58	1	1	1	USRTblock	1	USRT	44	600000	#ff0000	10pct	1	50pct	50pct	8000	219202	227219	218803	57	227558	339	0	0	42
6.1.1	win	2020-04-21	16:07:58	1	1	1	USRTblock	1	USRT	45	600000	#ff0000	10pct	1	50pct	50pct	4000	227561	231569	227219	57	232013	444	0	0	43
6.1.1	win	2020-04-21	16:07:58	1	1	1	USRTblock	1	USRT	46	600000	#ff0000	10pct	1	50pct	50pct	2000	232016	234035	231569	57	234412	377	0	0	44
6.1.1	win	2020-04-21	16:07:58	1	1	1	USRTblock	1	USRT	47	600000	#ff0000	10pct	1	50pct	50pct	6000	234416	240435	234035	57	240858	423	0	0	45
6.1.1	win	2020-04-21	16:07:58	1	1	1	USRTblock	1	USRT	48	600000	#ff0000	10pct	1	50pct	50pct	3000	240862	243884	240435	57	244218	334	0	0	46
6.1.1	win	2020-04-21	16:07:58	1	1	1	USRTblock	1	USRT	49	600000	#ff0000	10pct	1	50pct	50pct	4000	244222	248234	243884	57	248671	437	0	0	47
6.1.1	win	2020-04-21	16:07:58	1	1	1	USRTblock	1	USRT	50	600000	#ff0000	10pct	1	50pct	50pct	7000	248674	255683	248234	57	256330	647	0	0	48
6.1.1	win	2020-04-21	16:07:58	1	1	1	USRTblock	1	USRT	51	600000	#ff0000	10pct	1	50pct	50pct	6000	256333	262349	255683	57	262727	378	0	0	49
6.1.1	win	2020-04-21	16:07:58	1	1	1	USRTblock	1	USRT	52	600000	#ff0000	10pct	1	50pct	50pct	3000	262730	265748	262349	57	266119	371	0	0	50
6.1.1	win	2020-04-21	16:07:58	1	1	1	USRTblock	1	USRT	53	600000	#ff0000	10pct	1	50pct	50pct	6000	266123	272131	265748	57	272490	359	0	0	51
6.1.1	win	2020-04-21	16:07:58	1	1	1	USRTblock	1	USRT	54	600000	#ff0000	10pct	1	50pct	50pct	7000	272493	279497	272131	57	279784	287	0	0	52
6.1.1	win	2020-04-21	16:07:58	1	1	1	USRTblock	1	USRT	55	600000	#ff0000	10pct	1	50pct	50pct	2000	279788	281797	279497	57	282148	351	0	0	53
6.1.1	win	2020-04-21	16:07:58	1	1	1	USRTblock	1	USRT	56	600000	#ff0000	10pct	1	50pct	50pct	7000	282153	289163	281797	57	289427	264	0	0	54
6.1.1	win	2020-04-21	16:07:58	1	1	1	USRTblock	1	USRT	57	600000	#ff0000	10pct	1	50pct	50pct	2000	289431	291446	289163	57	291904	458	0	0	55
6.1.1	win	2020-04-21	16:07:58	1	1	1	USRTblock	1	USRT	58	600000	#ff0000	10pct	1	50pct	50pct	4000	291908	295912	291446	57	296271	359	0	0	56
6.1.1	win	2020-04-21	16:07:58	1	1	1	USRTblock	1	USRT	59	600000	#ff0000	10pct	1	50pct	50pct	3000	296274	299295	295912	57	299899	604	0	0	57
6.1.1	win	2020-04-21	16:07:58	1	1	1	USRTblock	1	USRT	60	600000	#ff0000	10pct	1	50pct	50pct	7000	299902	306911	299295	57	307168	257	0	0	58
6.1.1	win	2020-04-21	16:07:58	1	1	1	USRTblock	1	USRT	61	600000	#ff0000	10pct	1	50pct	50pct	8000	307172	315194	306911	57	315450	256	0	0	59
6.1.1	win	2020-04-21	16:07:58	1	1	1	USRTblock	1	USRT	62	600000	#ff0000	10pct	1	50pct	50pct	3000	315453	318460	315194	57	318728	268	0	0	60
6.1.1	win	2020-04-21	16:07:58	1	1	1	USRTblock	1	USRT	63	600000	#ff0000	10pct	1	50pct	50pct	3000	318731	321743	318460	57	322054	311	0	0	61
6.1.1	win	2020-04-21	16:07:58	1	1	1	USRTblock	1	USRT	64	600000	#ff0000	10pct	1	50pct	50pct	3000	322057	325075	321743	57	325764	689	0	0	62
6.1.1	win	2020-04-21	16:07:58	1	1	1	USRTblock	1	USRT	65	600000	#ff0000	10pct	1	50pct	50pct	7000	325768	332775	325075	57	333084	309	0	0	63
6.1.1	win	2020-04-21	16:07:58	1	1	1	USRTblock	1	USRT	66	600000	#ff0000	10pct	1	50pct	50pct	3000	333087	336108	332775	57	336398	290	0	0	64
6.1.1	win	2020-04-21	16:07:58	1	1	1	USRTblock	1	USRT	67	600000	#ff0000	10pct	1	50pct	50pct	2000	336402	338408	336108	57	338738	330	0	0	65
6.1.1	win	2020-04-21	16:07:58	1	1	1	USRTblock	1	USRT	68	600000	#ff0000	10pct	1	50pct	50pct	7000	338742	345758	338408	57	346022	264	0	0	66
6.1.1	win	2020-04-21	16:07:58	1	1	1	USRTblock	1	USRT	69	600000	#ff0000	10pct	1	50pct	50pct	6000	346026	352040	345758	57	352288	248	0	0	67
6.1.1	win	2020-04-21	16:07:58	1	1	1	USRTblock	1	USRT	70	600000	#ff0000	10pct	1	50pct	50pct	5000	352291	357306	352040	57	357590	284	0	0	68
6.1.1	win	2020-04-21	16:07:58	1	1	1	USRTblock	1	USRT	71	600000	#ff0000	10pct	1	50pct	50pct	5000	357593	362605	357306	57	362859	254	0	0	69
6.1.1	win	2020-04-21	16:07:58	1	1	1	USRTblock	1	USRT	72	600000	#ff0000	10pct	1	50pct	50pct	7000	362862	369872	362605	57	370181	309	0	0	70
6.1.1	win	2020-04-21	16:07:58	1	1	1	USRTblock	1	USRT	73	600000	#ff0000	10pct	1	50pct	50pct	7000	370185	377205	369872	57	377478	273	0	0	71
6.1.1	win	2020-04-21	16:07:58	1	1	1	USRTblock	1	USRT	74	600000	#ff0000	10pct	1	50pct	50pct	6000	377482	383487	377205	57	383812	325	0	0	72
6.1.1	win	2020-04-21	16:07:58	1	1	1	USRTblock	1	USRT	75	600000	#ff0000	10pct	1	50pct	50pct	4000	383816	387836	383487	57	388205	369	0	0	73
6.1.1	win	2020-04-21	16:07:58	1	1	1	USRTblock	1	USRT	76	600000	#ff0000	10pct	1	50pct	50pct	7000	388208	395220	387836	57	395486	266	0	0	74
6.1.1	win	2020-04-21	16:07:58	1	1	1	USRTblock	1	USRT	77	600000	#ff0000	10pct	1	50pct	50pct	7000	395489	402502	395220	57	402748	246	0	0	75
6.1.1	win	2020-04-21	16:07:58	1	1	1	USRTblock	1	USRT	78	600000	#ff0000	10pct	1	50pct	50pct	2000	402751	404768	402502	57	405216	448	0	0	76
6.1.1	win	2020-04-21	16:07:58	1	1	1	USRTblock	1	USRT	79	600000	#ff0000	10pct	1	50pct	50pct	7000	405219	412234	404768	57	412546	312	0	0	77
6.1.1	win	2020-04-21	16:07:58	1	1	1	USRTblock	1	USRT	80	600000	#ff0000	10pct	1	50pct	50pct	4000	412549	416567	412234	57	416890	323	0	0	78
6.1.1	win	2020-04-21	16:07:58	1	1	1	USRTblock	1	USRT	81	600000	#ff0000	10pct	1	50pct	50pct	5000	416894	421900	416567	57	422279	379	0	0	79
6.1.1	win	2020-04-21	16:07:58	1	1	1	USRTblock	1	USRT	82	600000	#ff0000	10pct	1	50pct	50pct	5000	422283	427299	421900	57	427641	342	0	0	80
6.1.1	win	2020-04-21	16:07:58	1	1	1	USRTblock	1	USRT	83	600000	#ff0000	10pct	1	50pct	50pct	2000	427644	429665	427299	57	430175	510	0	0	81
6.1.1	win	2020-04-21	16:07:58	1	1	1	USRTblock	1	USRT	84	600000	#ff0000	10pct	1	50pct	50pct	5000	430179	435198	429665	57	435540	342	0	0	82
6.1.1	win	2020-04-21	16:07:58	1	1	1	USRTblock	1	USRT	85	600000	#ff0000	10pct	1	50pct	50pct	8000	435544	443564	435198	57	443897	333	0	0	83
6.1.1	win	2020-04-21	16:07:58	1	1	1	USRTblock	1	USRT	86	600000	#ff0000	10pct	1	50pct	50pct	2000	443901	445914	443564	57	446342	428	0	0	84
6.1.1	win	2020-04-21	16:07:58	1	1	1	USRTblock	1	USRT	87	600000	#ff0000	10pct	1	50pct	50pct	2000	446346	448363	445914	57	448784	421	0	0	85
6.1.1	win	2020-04-21	16:07:58	1	1	1	USRTblock	1	USRT	88	600000	#ff0000	10pct	1	50pct	50pct	7000	448788	455797	448363	57	456206	409	0	0	86
6.1.1	win	2020-04-21	16:07:58	1	1	1	USRTblock	1	USRT	89	600000	#ff0000	10pct	1	50pct	50pct	8000	456210	464229	455797	57	464587	358	0	0	87
6.1.1	win	2020-04-21	16:07:58	1	1	1	USRTblock	1	USRT	90	600000	#ff0000	10pct	1	50pct	50pct	2000	464591	466612	464229	57	467206	594	0	0	88
6.1.1	win	2020-04-21	16:07:58	1	1	1	USRTblock	1	USRT	91	600000	#ff0000	10pct	1	50pct	50pct	2000	467210	469228	466612	57	469571	343	0	0	89
6.1.1	win	2020-04-21	16:07:58	1	1	1	USRTblock	1	USRT	92	600000	#ff0000	10pct	1	50pct	50pct	7000	469575	476594	469228	57	477013	419	0	0	90
6.1.1	win	2020-04-21	16:07:58	1	1	1	USRTblock	1	USRT	93	600000	#ff0000	10pct	1	50pct	50pct	5000	477016	482027	476594	57	482451	424	0	0	91
6.1.1	win	2020-04-21	16:07:58	1	1	1	USRTblock	1	USRT	94	600000	#ff0000	10pct	1	50pct	50pct	5000	482455	487460	482027	57	487813	353	0	0	92
6.1.1	win	2020-04-21	16:07:58	1	1	1	USRTblock	1	USRT	95	600000	#ff0000	10pct	1	50pct	50pct	6000	487817	493826	487460	57	494176	350	0	0	93
6.1.1	win	2020-04-21	16:07:58	1	1	1	USRTblock	1	USRT	96	600000	#ff0000	10pct	1	50pct	50pct	3000	494179	497192	493826	57	497590	398	0	0	94
6.1.1	win	2020-04-21	16:07:58	1	1	1	USRTblock	1	USRT	97	600000	#ff0000	10pct	1	50pct	50pct	6000	497593	503608	497192	57	503936	328	0	0	95
6.1.1	win	2020-04-21	16:07:58	1	1	1	USRTblock	1	USRT	98	600000	#ff0000	10pct	1	50pct	50pct	6000	503939	509958	503608	57	510309	351	0	0	96
6.1.1	win	2020-04-21	16:07:58	1	1	1	USRTblock	1	USRT	99	600000	#ff0000	10pct	1	50pct	50pct	2000	510313	512324	509958	57	512993	669	0	0	97
6.1.1	win	2020-04-21	16:07:58	1	1	1	USRTblock	1	USRT	100	600000	#ff0000	10pct	1	50pct	50pct	2000	512997	515007	512324	57	515359	352	0	0	98
6.1.1	win	2020-04-21	16:07:58	1	1	1	USRTblock	1	USRT	101	600000	#ff0000	10pct	1	50pct	50pct	2000	515363	517373	515007	57	517902	529	0	0	99
6.1.1	win	2020-04-21	16:07:58	1	1	1	USRTblock	1	USRT	102	600000	#ff0000	10pct	1	50pct	50pct	4000	517906	521923	517373	57	522281	358	0	0	100
6.1.1	win	2020-04-21	16:07:58	1	1	1	USRTblock	1	USRT	103	600000	#ff0000	10pct	1	50pct	50pct	6000	522285	528305	521923	57	528655	350	0	0	101
6.1.1	win	2020-04-21	16:07:58	1	1	1	USRTblock	1	USRT	104	600000	#ff0000	10pct	1	50pct	50pct	2000	528658	530671	528305	57	531164	493	0	0	102
6.1.1	win	2020-04-21	16:07:58	1	1	1	USRTblock	1	USRT	105	600000	#ff0000	10pct	1	50pct	50pct	2000	531167	533171	530671	57	533684	513	0	0	103
6.1.1	win	2020-04-21	16:07:58	1	1	1	USRTblock	1	USRT	106	600000	#ff0000	10pct	1	50pct	50pct	5000	533688	538705	533171	57	539185	480	0	0	104
6.1.1	win	2020-04-21	16:07:58	1	1	1	USRTblock	1	USRT	107	600000	#ff0000	10pct	1	50pct	50pct	7000	539188	546204	538705	57	546884	680	0	0	105
6.1.1	win	2020-04-21	16:07:58	1	1	1	USRTblock	1	USRT	108	600000	#ff0000	10pct	1	50pct	50pct	4000	546887	550903	546204	57	551272	369	0	0	106
6.1.1	win	2020-04-21	16:07:58	1	1	1	USRTblock	1	USRT	109	600000	#ff0000	10pct	1	50pct	50pct	6000	551275	557286	550903	57	557632	346	0	0	107
6.1.1	win	2020-04-21	16:07:58	1	1	1	USRTblock	1	USRT	110	600000	#ff0000	10pct	1	50pct	50pct	7000	557636	564652	557286	57	564953	301	0	0	108
6.1.1	win	2020-04-21	16:07:58	1	1	1	USRTblock	1	USRT	111	600000	#ff0000	10pct	1	50pct	50pct	7000	564957	571968	564652	57	572355	387	0	0	109
6.1.1	win	2020-04-21	16:07:58	1	1	1	USRTblock	1	USRT	112	600000	#ff0000	10pct	1	50pct	50pct	4000	572358	576368	571968	57	576717	349	0	0	110
6.1.1	win	2020-04-21	16:07:58	1	1	1	USRTblock	1	USRT	113	600000	#ff0000	10pct	1	50pct	50pct	5000	576721	581734	576368	57	582103	369	0	0	111
6.1.1	win	2020-04-21	16:07:58	1	1	1	USRTblock	1	USRT	114	600000	#ff0000	10pct	1	50pct	50pct	6000	582107	588117	581734	57	588428	311	0	0	112
6.1.1	win	2020-04-21	16:07:58	1	1	1	USRTblock	1	USRT	115	600000	#ff0000	10pct	1	50pct	50pct	4000	588431	592449	588117	57	592764	315	0	0	113
6.1.1	win	2020-04-21	16:07:58	1	1	1	USRTblock	1	USRT	116	600000	#ff0000	10pct	1	50pct	50pct	2000	592767	594782	592449	57	595216	434	0	0	114
6.1.1	win	2020-04-21	16:07:58	1	1	1	USRTblock	1	USRT	117	600000	#ff0000	10pct	1	50pct	50pct	7000	595220	-1	594782	0	595350	0	1	1	115
