build	computer.platform	date	time	subject	group	sessionid	blockcode	blocknum	trialcode	trialnum	testduration	targetcolor	targetsize	fixed	targetx	targety	stiminterval	trialStart	shape.targetcircle.timestamp	lastCircleTimestamp	response	rt_elapsed	rt	EarlyResponse	countEarlyResponses	countResponses
6.1.1	win	2020-04-03	07:41:47	1	1	1	USRTblock	1	USRT	3	600000	#ff0000	10pct	1	50pct	50pct	2000	19167	21186	18180	57	21446	260	0	0	1
6.1.1	win	2020-04-03	07:41:47	1	1	1	USRTblock	1	USRT	4	600000	#ff0000	10pct	1	50pct	50pct	2000	21468	23486	21186	57	23723	237	0	0	2
6.1.1	win	2020-04-03	07:41:47	1	1	1	USRTblock	1	USRT	5	600000	#ff0000	10pct	1	50pct	50pct	4000	23729	27754	23486	57	28022	268	0	0	3
6.1.1	win	2020-04-03	07:41:47	1	1	1	USRTblock	1	USRT	6	600000	#ff0000	10pct	1	50pct	50pct	7000	28031	35054	27754	57	35312	258	0	0	4
6.1.1	win	2020-04-03	07:41:47	1	1	1	USRTblock	1	USRT	7	600000	#ff0000	10pct	1	50pct	50pct	2000	35321	37353	35054	57	37615	262	0	0	5
6.1.1	win	2020-04-03	07:41:47	1	1	1	USRTblock	1	USRT	8	600000	#ff0000	10pct	1	50pct	50pct	2000	37624	39653	37353	57	39875	222	0	0	6
6.1.1	win	2020-04-03	07:41:47	1	1	1	USRTblock	1	USRT	9	600000	#ff0000	10pct	1	50pct	50pct	8000	39882	47902	39653	57	48141	239	0	0	7
6.1.1	win	2020-04-03	07:41:47	1	1	1	USRTblock	1	USRT	10	600000	#ff0000	10pct	1	50pct	50pct	7000	48149	55169	47902	57	55439	270	0	0	8
6.1.1	win	2020-04-03	07:41:47	1	1	1	USRTblock	1	USRT	11	600000	#ff0000	10pct	1	50pct	50pct	5000	55447	60467	55169	57	60730	263	0	0	9
6.1.1	win	2020-04-03	07:41:47	1	1	1	USRTblock	1	USRT	12	600000	#ff0000	10pct	1	50pct	50pct	3000	60738	63767	60467	57	64032	265	0	0	10
6.1.1	win	2020-04-03	07:41:47	1	1	1	USRTblock	1	USRT	13	600000	#ff0000	10pct	1	50pct	50pct	5000	64040	69066	63767	57	69362	296	0	0	11
6.1.1	win	2020-04-03	07:41:47	1	1	1	USRTblock	1	USRT	14	600000	#ff0000	10pct	1	50pct	50pct	8000	69369	77399	69066	57	77686	287	0	0	12
6.1.1	win	2020-04-03	07:41:47	1	1	1	USRTblock	1	USRT	15	600000	#ff0000	10pct	1	50pct	50pct	2000	77694	79716	77399	57	80056	340	0	0	13
6.1.1	win	2020-04-03	07:41:47	1	1	1	USRTblock	1	USRT	16	600000	#ff0000	10pct	1	50pct	50pct	5000	80065	85098	79716	57	85451	353	0	0	14
6.1.1	win	2020-04-03	07:41:47	1	1	1	USRTblock	1	USRT	17	600000	#ff0000	10pct	1	50pct	50pct	5000	85458	90481	85098	57	90809	328	0	0	15
6.1.1	win	2020-04-03	07:41:47	1	1	1	USRTblock	1	USRT	18	600000	#ff0000	10pct	1	50pct	50pct	6000	90817	96848	90481	57	97161	313	0	0	16
6.1.1	win	2020-04-03	07:41:47	1	1	1	USRTblock	1	USRT	19	600000	#ff0000	10pct	1	50pct	50pct	6000	97170	103197	96848	57	103485	288	0	0	17
6.1.1	win	2020-04-03	07:41:47	1	1	1	USRTblock	1	USRT	20	600000	#ff0000	10pct	1	50pct	50pct	8000	103493	111513	103197	57	111789	276	0	0	18
6.1.1	win	2020-04-03	07:41:47	1	1	1	USRTblock	1	USRT	21	600000	#ff0000	10pct	1	50pct	50pct	7000	111797	118812	111513	57	119114	302	0	0	19
6.1.1	win	2020-04-03	07:41:47	1	1	1	USRTblock	1	USRT	22	600000	#ff0000	10pct	1	50pct	50pct	7000	119122	126146	118812	57	126444	298	0	0	20
6.1.1	win	2020-04-03	07:41:47	1	1	1	USRTblock	1	USRT	23	600000	#ff0000	10pct	1	50pct	50pct	4000	126452	130477	126146	57	130831	354	0	0	21
6.1.1	win	2020-04-03	07:41:47	1	1	1	USRTblock	1	USRT	24	600000	#ff0000	10pct	1	50pct	50pct	7000	130840	137860	130477	57	138197	337	0	0	22
6.1.1	win	2020-04-03	07:41:47	1	1	1	USRTblock	1	USRT	25	600000	#ff0000	10pct	1	50pct	50pct	6000	138205	144227	137860	57	144536	309	0	0	23
6.1.1	win	2020-04-03	07:41:47	1	1	1	USRTblock	1	USRT	26	600000	#ff0000	10pct	1	50pct	50pct	4000	144544	148575	144227	57	148915	340	0	0	24
6.1.1	win	2020-04-03	07:41:47	1	1	1	USRTblock	1	USRT	27	600000	#ff0000	10pct	1	50pct	50pct	2000	148923	150942	148575	57	151269	327	0	0	25
6.1.1	win	2020-04-03	07:41:47	1	1	1	USRTblock	1	USRT	28	600000	#ff0000	10pct	1	50pct	50pct	4000	151277	155308	150942	57	155574	266	0	0	26
6.1.1	win	2020-04-03	07:41:47	1	1	1	USRTblock	1	USRT	29	600000	#ff0000	10pct	1	50pct	50pct	6000	155582	161608	155308	57	161871	263	0	0	27
6.1.1	win	2020-04-03	07:41:47	1	1	1	USRTblock	1	USRT	30	600000	#ff0000	10pct	1	50pct	50pct	2000	161880	163907	161608	57	164219	312	0	0	28
6.1.1	win	2020-04-03	07:41:47	1	1	1	USRTblock	1	USRT	31	600000	#ff0000	10pct	1	50pct	50pct	6000	164228	170257	163907	57	170543	286	0	0	29
6.1.1	win	2020-04-03	07:41:47	1	1	1	USRTblock	1	USRT	32	600000	#ff0000	10pct	1	50pct	50pct	4000	170551	174572	170257	57	174843	271	0	0	30
6.1.1	win	2020-04-03	07:41:47	1	1	1	USRTblock	1	USRT	33	600000	#ff0000	10pct	1	50pct	50pct	2000	174851	176872	174572	57	177248	376	0	0	31
6.1.1	win	2020-04-03	07:41:47	1	1	1	USRTblock	1	USRT	34	600000	#ff0000	10pct	1	50pct	50pct	7000	177256	184289	176872	57	184605	316	0	0	32
6.1.1	win	2020-04-03	07:41:47	1	1	1	USRTblock	1	USRT	35	600000	#ff0000	10pct	1	50pct	50pct	4000	184613	188638	184289	57	188952	314	0	0	33
6.1.1	win	2020-04-03	07:41:47	1	1	1	USRTblock	1	USRT	36	600000	#ff0000	10pct	1	50pct	50pct	4000	188961	192987	188638	57	193332	345	0	0	34
6.1.1	win	2020-04-03	07:41:47	1	1	1	USRTblock	1	USRT	37	600000	#ff0000	10pct	1	50pct	50pct	2000	193341	195371	192987	57	195678	307	0	0	35
6.1.1	win	2020-04-03	07:41:47	1	1	1	USRTblock	1	USRT	38	600000	#ff0000	10pct	1	50pct	50pct	8000	195687	203704	195371	57	203999	295	0	0	36
6.1.1	win	2020-04-03	07:41:47	1	1	1	USRTblock	1	USRT	39	600000	#ff0000	10pct	1	50pct	50pct	8000	204007	212036	203704	57	212336	300	0	0	37
6.1.1	win	2020-04-03	07:41:47	1	1	1	USRTblock	1	USRT	40	600000	#ff0000	10pct	1	50pct	50pct	2000	212345	214369	212036	57	214716	347	0	0	38
6.1.1	win	2020-04-03	07:41:47	1	1	1	USRTblock	1	USRT	41	600000	#ff0000	10pct	1	50pct	50pct	8000	214724	222752	214369	57	223078	326	0	0	39
6.1.1	win	2020-04-03	07:41:47	1	1	1	USRTblock	1	USRT	42	600000	#ff0000	10pct	1	50pct	50pct	3000	223085	226100	222752	57	226443	343	0	0	40
6.1.1	win	2020-04-03	07:41:47	1	1	1	USRTblock	1	USRT	43	600000	#ff0000	10pct	1	50pct	50pct	6000	226451	232467	226100	57	232825	358	0	0	41
6.1.1	win	2020-04-03	07:41:47	1	1	1	USRTblock	1	USRT	44	600000	#ff0000	10pct	1	50pct	50pct	3000	232832	235866	232467	57	236208	342	0	0	42
6.1.1	win	2020-04-03	07:41:47	1	1	1	USRTblock	1	USRT	45	600000	#ff0000	10pct	1	50pct	50pct	7000	236215	243232	235866	57	243533	301	0	0	43
6.1.1	win	2020-04-03	07:41:47	1	1	1	USRTblock	1	USRT	46	600000	#ff0000	10pct	1	50pct	50pct	4000	243540	247565	243232	57	247916	351	0	0	44
6.1.1	win	2020-04-03	07:41:47	1	1	1	USRTblock	1	USRT	47	600000	#ff0000	10pct	1	50pct	50pct	3000	247925	250949	247565	57	251300	351	0	0	45
6.1.1	win	2020-04-03	07:41:47	1	1	1	USRTblock	1	USRT	48	600000	#ff0000	10pct	1	50pct	50pct	5000	251308	256332	250949	57	256600	268	0	0	46
6.1.1	win	2020-04-03	07:41:47	1	1	1	USRTblock	1	USRT	49	600000	#ff0000	10pct	1	50pct	50pct	7000	256609	263631	256332	57	263945	314	0	0	47
6.1.1	win	2020-04-03	07:41:47	1	1	1	USRTblock	1	USRT	50	600000	#ff0000	10pct	1	50pct	50pct	6000	263953	-1	263631	57	268232	0	1	1	48
6.1.1	win	2020-04-03	07:41:47	1	1	1	USRTblock	1	USRT	51	600000	#ff0000	10pct	1	50pct	50pct	8000	268241	276263	-1	57	276547	284	0	1	49
6.1.1	win	2020-04-03	07:41:47	1	1	1	USRTblock	1	USRT	52	600000	#ff0000	10pct	1	50pct	50pct	5000	276556	281579	276263	57	281877	298	0	1	50
6.1.1	win	2020-04-03	07:41:47	1	1	1	USRTblock	1	USRT	53	600000	#ff0000	10pct	1	50pct	50pct	8000	281884	289912	281579	57	290193	281	0	1	51
6.1.1	win	2020-04-03	07:41:47	1	1	1	USRTblock	1	USRT	54	600000	#ff0000	10pct	1	50pct	50pct	7000	290202	297228	289912	57	297523	295	0	1	52
6.1.1	win	2020-04-03	07:41:47	1	1	1	USRTblock	1	USRT	55	600000	#ff0000	10pct	1	50pct	50pct	8000	297531	305561	297228	57	306089	528	0	1	53
6.1.1	win	2020-04-03	07:41:47	1	1	1	USRTblock	1	USRT	56	600000	#ff0000	10pct	1	50pct	50pct	4000	306097	310126	305561	57	310396	270	0	1	54
6.1.1	win	2020-04-03	07:41:47	1	1	1	USRTblock	1	USRT	57	600000	#ff0000	10pct	1	50pct	50pct	3000	310404	313426	310126	57	313697	271	0	1	55
6.1.1	win	2020-04-03	07:41:47	1	1	1	USRTblock	1	USRT	58	600000	#ff0000	10pct	1	50pct	50pct	4000	313706	317725	313426	57	318039	314	0	1	56
6.1.1	win	2020-04-03	07:41:47	1	1	1	USRTblock	1	USRT	59	600000	#ff0000	10pct	1	50pct	50pct	2000	318048	320075	317725	57	320348	273	0	1	57
6.1.1	win	2020-04-03	07:41:47	1	1	1	USRTblock	1	USRT	60	600000	#ff0000	10pct	1	50pct	50pct	5000	320357	325374	320075	57	325643	269	0	1	58
6.1.1	win	2020-04-03	07:41:47	1	1	1	USRTblock	1	USRT	61	600000	#ff0000	10pct	1	50pct	50pct	4000	325650	329674	325374	57	329976	302	0	1	59
6.1.1	win	2020-04-03	07:41:47	1	1	1	USRTblock	1	USRT	62	600000	#ff0000	10pct	1	50pct	50pct	2000	329984	332006	329674	57	332260	254	0	1	60
6.1.1	win	2020-04-03	07:41:47	1	1	1	USRTblock	1	USRT	63	600000	#ff0000	10pct	1	50pct	50pct	3000	332269	335290	332006	57	335554	264	0	1	61
6.1.1	win	2020-04-03	07:41:47	1	1	1	USRTblock	1	USRT	64	600000	#ff0000	10pct	1	50pct	50pct	6000	335562	341590	335290	57	341887	297	0	1	62
6.1.1	win	2020-04-03	07:41:47	1	1	1	USRTblock	1	USRT	65	600000	#ff0000	10pct	1	50pct	50pct	5000	341896	346923	341590	57	347256	333	0	1	63
6.1.1	win	2020-04-03	07:41:47	1	1	1	USRTblock	1	USRT	66	600000	#ff0000	10pct	1	50pct	50pct	7000	347265	354289	346923	57	354585	296	0	1	64
6.1.1	win	2020-04-03	07:41:47	1	1	1	USRTblock	1	USRT	67	600000	#ff0000	10pct	1	50pct	50pct	2000	354592	356619	354289	57	356959	340	0	1	65
6.1.1	win	2020-04-03	07:41:47	1	1	1	USRTblock	1	USRT	68	600000	#ff0000	10pct	1	50pct	50pct	3000	356965	359985	356619	57	360253	268	0	1	66
6.1.1	win	2020-04-03	07:41:47	1	1	1	USRTblock	1	USRT	69	600000	#ff0000	10pct	1	50pct	50pct	3000	360259	363285	359985	57	363594	309	0	1	67
6.1.1	win	2020-04-03	07:41:47	1	1	1	USRTblock	1	USRT	70	600000	#ff0000	10pct	1	50pct	50pct	4000	363599	367619	363285	57	367890	271	0	1	68
6.1.1	win	2020-04-03	07:41:47	1	1	1	USRTblock	1	USRT	71	600000	#ff0000	10pct	1	50pct	50pct	6000	367896	373918	367619	57	374163	245	0	1	69
6.1.1	win	2020-04-03	07:41:47	1	1	1	USRTblock	1	USRT	72	600000	#ff0000	10pct	1	50pct	50pct	3000	374168	377200	373918	57	377497	297	0	1	70
6.1.1	win	2020-04-03	07:41:47	1	1	1	USRTblock	1	USRT	73	600000	#ff0000	10pct	1	50pct	50pct	8000	377503	385534	377200	57	385839	305	0	1	71
6.1.1	win	2020-04-03	07:41:47	1	1	1	USRTblock	1	USRT	74	600000	#ff0000	10pct	1	50pct	50pct	4000	385845	389868	385534	57	390176	308	0	1	72
6.1.1	win	2020-04-03	07:41:47	1	1	1	USRTblock	1	USRT	75	600000	#ff0000	10pct	1	50pct	50pct	7000	390185	397218	389868	57	397530	312	0	1	73
6.1.1	win	2020-04-03	07:41:47	1	1	1	USRTblock	1	USRT	76	600000	#ff0000	10pct	1	50pct	50pct	3000	397537	400567	397218	57	400920	353	0	1	74
6.1.1	win	2020-04-03	07:41:47	1	1	1	USRTblock	1	USRT	77	600000	#ff0000	10pct	1	50pct	50pct	3000	400929	403950	400567	57	404288	338	0	1	75
6.1.1	win	2020-04-03	07:41:47	1	1	1	USRTblock	1	USRT	78	600000	#ff0000	10pct	1	50pct	50pct	7000	404296	-1	403950	57	408930	0	1	2	76
6.1.1	win	2020-04-03	07:41:47	1	1	1	USRTblock	1	USRT	79	600000	#ff0000	10pct	1	50pct	50pct	4000	408936	412963	-1	57	413248	285	0	2	77
6.1.1	win	2020-04-03	07:41:47	1	1	1	USRTblock	1	USRT	80	600000	#ff0000	10pct	1	50pct	50pct	7000	413253	420279	412963	57	420595	316	0	2	78
6.1.1	win	2020-04-03	07:41:47	1	1	1	USRTblock	1	USRT	81	600000	#ff0000	10pct	1	50pct	50pct	2000	420601	422629	420279	57	422940	311	0	2	79
6.1.1	win	2020-04-03	07:41:47	1	1	1	USRTblock	1	USRT	82	600000	#ff0000	10pct	1	50pct	50pct	4000	422945	426962	422629	57	427260	298	0	2	80
6.1.1	win	2020-04-03	07:41:47	1	1	1	USRTblock	1	USRT	83	600000	#ff0000	10pct	1	50pct	50pct	4000	427267	431295	426962	57	431609	314	0	2	81
6.1.1	win	2020-04-03	07:41:47	1	1	1	USRTblock	1	USRT	84	600000	#ff0000	10pct	1	50pct	50pct	2000	431616	433645	431295	57	433998	353	0	2	82
6.1.1	win	2020-04-03	07:41:47	1	1	1	USRTblock	1	USRT	85	600000	#ff0000	10pct	1	50pct	50pct	2000	434005	436029	433645	57	436396	367	0	2	83
6.1.1	win	2020-04-03	07:41:47	1	1	1	USRTblock	1	USRT	86	600000	#ff0000	10pct	1	50pct	50pct	4000	436404	440430	436029	57	440716	286	0	2	84
6.1.1	win	2020-04-03	07:41:47	1	1	1	USRTblock	1	USRT	87	600000	#ff0000	10pct	1	50pct	50pct	7000	440725	447746	440430	57	448065	319	0	2	85
6.1.1	win	2020-04-03	07:41:47	1	1	1	USRTblock	1	USRT	88	600000	#ff0000	10pct	1	50pct	50pct	4000	448073	452095	447746	57	452383	288	0	2	86
6.1.1	win	2020-04-03	07:41:47	1	1	1	USRTblock	1	USRT	89	600000	#ff0000	10pct	1	50pct	50pct	7000	452391	459412	452095	57	459738	326	0	2	87
6.1.1	win	2020-04-03	07:41:47	1	1	1	USRTblock	1	USRT	90	600000	#ff0000	10pct	1	50pct	50pct	4000	459746	463761	459412	57	464067	306	0	2	88
6.1.1	win	2020-04-03	07:41:47	1	1	1	USRTblock	1	USRT	91	600000	#ff0000	10pct	1	50pct	50pct	5000	464074	469093	463761	57	469439	346	0	2	89
6.1.1	win	2020-04-03	07:41:47	1	1	1	USRTblock	1	USRT	92	600000	#ff0000	10pct	1	50pct	50pct	4000	469448	473477	469093	57	473807	330	0	2	90
6.1.1	win	2020-04-03	07:41:47	1	1	1	USRTblock	1	USRT	93	600000	#ff0000	10pct	1	50pct	50pct	2000	473815	475843	473477	57	476149	306	0	2	91
6.1.1	win	2020-04-03	07:41:47	1	1	1	USRTblock	1	USRT	94	600000	#ff0000	10pct	1	50pct	50pct	7000	476157	483176	475843	57	483557	381	0	2	92
6.1.1	win	2020-04-03	07:41:47	1	1	1	USRTblock	1	USRT	95	600000	#ff0000	10pct	1	50pct	50pct	5000	483566	488592	483176	57	488881	289	0	2	93
6.1.1	win	2020-04-03	07:41:47	1	1	1	USRTblock	1	USRT	96	600000	#ff0000	10pct	1	50pct	50pct	4000	488890	492925	488592	57	493251	326	0	2	94
6.1.1	win	2020-04-03	07:41:47	1	1	1	USRTblock	1	USRT	97	600000	#ff0000	10pct	1	50pct	50pct	5000	493260	498291	492925	57	498554	263	0	2	95
6.1.1	win	2020-04-03	07:41:47	1	1	1	USRTblock	1	USRT	98	600000	#ff0000	10pct	1	50pct	50pct	5000	498563	503591	498291	57	503836	245	0	2	96
6.1.1	win	2020-04-03	07:41:47	1	1	1	USRTblock	1	USRT	99	600000	#ff0000	10pct	1	50pct	50pct	5000	503844	508873	503591	57	509265	392	0	2	97
6.1.1	win	2020-04-03	07:41:47	1	1	1	USRTblock	1	USRT	100	600000	#ff0000	10pct	1	50pct	50pct	5000	509274	514289	508873	57	514660	371	0	2	98
6.1.1	win	2020-04-03	07:41:47	1	1	1	USRTblock	1	USRT	101	600000	#ff0000	10pct	1	50pct	50pct	6000	514667	520689	514289	57	521035	346	0	2	99
6.1.1	win	2020-04-03	07:41:47	1	1	1	USRTblock	1	USRT	102	600000	#ff0000	10pct	1	50pct	50pct	6000	521044	527071	520689	57	527525	454	0	2	100
6.1.1	win	2020-04-03	07:41:47	1	1	1	USRTblock	1	USRT	103	600000	#ff0000	10pct	1	50pct	50pct	4000	527533	531554	527071	57	531907	353	0	2	101
6.1.1	win	2020-04-03	07:41:47	1	1	1	USRTblock	1	USRT	104	600000	#ff0000	10pct	1	50pct	50pct	7000	531915	538937	531554	57	539230	293	0	2	102
6.1.1	win	2020-04-03	07:41:47	1	1	1	USRTblock	1	USRT	105	600000	#ff0000	10pct	1	50pct	50pct	7000	539239	546270	538937	57	546590	320	0	2	103
6.1.1	win	2020-04-03	07:41:47	1	1	1	USRTblock	1	USRT	106	600000	#ff0000	10pct	1	50pct	50pct	6000	546598	552619	546270	57	552909	290	0	2	104
6.1.1	win	2020-04-03	07:41:47	1	1	1	USRTblock	1	USRT	107	600000	#ff0000	10pct	1	50pct	50pct	7000	552918	559935	552619	57	560203	268	0	2	105
6.1.1	win	2020-04-03	07:41:47	1	1	1	USRTblock	1	USRT	108	600000	#ff0000	10pct	1	50pct	50pct	2000	560211	562234	559935	57	562603	369	0	2	106
6.1.1	win	2020-04-03	07:41:47	1	1	1	USRTblock	1	USRT	109	600000	#ff0000	10pct	1	50pct	50pct	6000	562610	568632	562234	57	568919	287	0	2	107
6.1.1	win	2020-04-03	07:41:47	1	1	1	USRTblock	1	USRT	110	600000	#ff0000	10pct	1	50pct	50pct	5000	568924	573949	568632	57	574271	322	0	2	108
6.1.1	win	2020-04-03	07:41:47	1	1	1	USRTblock	1	USRT	111	600000	#ff0000	10pct	1	50pct	50pct	6000	574277	580300	573949	57	580613	313	0	2	109
6.1.1	win	2020-04-03	07:41:47	1	1	1	USRTblock	1	USRT	112	600000	#ff0000	10pct	1	50pct	50pct	8000	580621	588649	580300	57	588951	302	0	2	110
6.1.1	win	2020-04-03	07:41:47	1	1	1	USRTblock	1	USRT	113	600000	#ff0000	10pct	1	50pct	50pct	8000	588960	596982	588649	57	597279	297	0	2	111
6.1.1	win	2020-04-03	07:41:47	1	1	1	USRTblock	1	USRT	114	600000	#ff0000	10pct	1	50pct	50pct	8000	597288	605314	596982	57	605588	274	0	2	112
6.1.1	win	2020-04-03	07:41:47	1	1	1	USRTblock	1	USRT	115	600000	#ff0000	10pct	1	50pct	50pct	3000	605596	608613	605314	57	609022	409	0	2	113
6.1.1	win	2020-04-03	07:41:47	1	1	1	USRTblock	1	USRT	116	600000	#ff0000	10pct	1	50pct	50pct	8000	609031	617063	608613	0	609116	-7947	0	2	114
