build	computer.platform	date	time	subject	group	sessionid	blockcode	blocknum	trialcode	trialnum	testduration	targetcolor	targetsize	fixed	targetx	targety	stiminterval	trialStart	shape.targetcircle.timestamp	lastCircleTimestamp	response	rt_elapsed	rt	EarlyResponse	countEarlyResponses	countResponses
6.1.1	win	2020-04-03	13:41:10	1	1	1	USRTblock	1	USRT	3	600000	#ff0000	10pct	1	50pct	50pct	4000	2979	6991	2189	57	7270	279	0	0	1
6.1.1	win	2020-04-03	13:41:10	1	1	1	USRTblock	1	USRT	4	600000	#ff0000	10pct	1	50pct	50pct	4000	7283	11291	6991	57	11577	286	0	0	2
6.1.1	win	2020-04-03	13:41:10	1	1	1	USRTblock	1	USRT	5	600000	#ff0000	10pct	1	50pct	50pct	2000	11581	13590	11291	57	13834	244	0	0	3
6.1.1	win	2020-04-03	13:41:10	1	1	1	USRTblock	1	USRT	6	600000	#ff0000	10pct	1	50pct	50pct	7000	13838	20858	13590	57	21174	316	0	0	4
6.1.1	win	2020-04-03	13:41:10	1	1	1	USRTblock	1	USRT	7	600000	#ff0000	10pct	1	50pct	50pct	7000	21177	28191	20858	57	28453	262	0	0	5
6.1.1	win	2020-04-03	13:41:10	1	1	1	USRTblock	1	USRT	8	600000	#ff0000	10pct	1	50pct	50pct	7000	28456	35473	28191	57	35767	294	0	0	6
6.1.1	win	2020-04-03	13:41:10	1	1	1	USRTblock	1	USRT	9	600000	#ff0000	10pct	1	50pct	50pct	3000	35770	38788	35473	57	39121	333	0	0	7
6.1.1	win	2020-04-03	13:41:10	1	1	1	USRTblock	1	USRT	10	600000	#ff0000	10pct	1	50pct	50pct	8000	39124	47138	38788	57	47405	267	0	0	8
6.1.1	win	2020-04-03	13:41:10	1	1	1	USRTblock	1	USRT	11	600000	#ff0000	10pct	1	50pct	50pct	6000	47409	53421	47138	57	53709	288	0	0	9
6.1.1	win	2020-04-03	13:41:10	1	1	1	USRTblock	1	USRT	12	600000	#ff0000	10pct	1	50pct	50pct	3000	53713	56720	53421	57	57091	371	0	0	10
6.1.1	win	2020-04-03	13:41:10	1	1	1	USRTblock	1	USRT	13	600000	#ff0000	10pct	1	50pct	50pct	3000	57094	60103	56720	57	60394	291	0	0	11
6.1.1	win	2020-04-03	13:41:10	1	1	1	USRTblock	1	USRT	14	600000	#ff0000	10pct	1	50pct	50pct	2000	60398	62402	60103	57	62682	280	0	0	12
6.1.1	win	2020-04-03	13:41:10	1	1	1	USRTblock	1	USRT	15	600000	#ff0000	10pct	1	50pct	50pct	3000	62685	65702	62402	57	65983	281	0	0	13
6.1.1	win	2020-04-03	13:41:10	1	1	1	USRTblock	1	USRT	16	600000	#ff0000	10pct	1	50pct	50pct	4000	65986	70003	65702	57	70307	304	0	0	14
6.1.1	win	2020-04-03	13:41:10	1	1	1	USRTblock	1	USRT	17	600000	#ff0000	10pct	1	50pct	50pct	7000	70310	77318	70003	57	77591	273	0	0	15
6.1.1	win	2020-04-03	13:41:10	1	1	1	USRTblock	1	USRT	18	600000	#ff0000	10pct	1	50pct	50pct	4000	77594	81601	77318	57	81876	275	0	0	16
6.1.1	win	2020-04-03	13:41:10	1	1	1	USRTblock	1	USRT	19	600000	#ff0000	10pct	1	50pct	50pct	6000	81879	87900	81601	57	88145	245	0	0	17
6.1.1	win	2020-04-03	13:41:10	1	1	1	USRTblock	1	USRT	20	600000	#ff0000	10pct	1	50pct	50pct	3000	88148	91166	87900	57	91441	275	0	0	18
6.1.1	win	2020-04-03	13:41:10	1	1	1	USRTblock	1	USRT	21	600000	#ff0000	10pct	1	50pct	50pct	2000	91445	93466	91166	57	93828	362	0	0	19
6.1.1	win	2020-04-03	13:41:10	1	1	1	USRTblock	1	USRT	22	600000	#ff0000	10pct	1	50pct	50pct	2000	93832	95849	93466	57	96095	246	0	0	20
6.1.1	win	2020-04-03	13:41:10	1	1	1	USRTblock	1	USRT	23	600000	#ff0000	10pct	1	50pct	50pct	8000	96099	-1	95849	57	102834	0	1	1	21
6.1.1	win	2020-04-03	13:41:10	1	1	1	USRTblock	1	USRT	24	600000	#ff0000	10pct	1	50pct	50pct	7000	102837	109849	-1	57	110133	284	0	1	22
6.1.1	win	2020-04-03	13:41:10	1	1	1	USRTblock	1	USRT	25	600000	#ff0000	10pct	1	50pct	50pct	8000	110137	118147	109849	57	118425	278	0	1	23
6.1.1	win	2020-04-03	13:41:10	1	1	1	USRTblock	1	USRT	26	600000	#ff0000	10pct	1	50pct	50pct	4000	118429	122448	118147	57	122772	324	0	1	24
6.1.1	win	2020-04-03	13:41:10	1	1	1	USRTblock	1	USRT	27	600000	#ff0000	10pct	1	50pct	50pct	5000	122775	127779	122448	57	128117	338	0	1	25
6.1.1	win	2020-04-03	13:41:10	1	1	1	USRTblock	1	USRT	28	600000	#ff0000	10pct	1	50pct	50pct	8000	128121	136129	127779	57	136399	270	0	1	26
6.1.1	win	2020-04-03	13:41:10	1	1	1	USRTblock	1	USRT	29	600000	#ff0000	10pct	1	50pct	50pct	4000	136403	140412	136129	57	140692	280	0	1	27
6.1.1	win	2020-04-03	13:41:10	1	1	1	USRTblock	1	USRT	30	600000	#ff0000	10pct	1	50pct	50pct	6000	140696	146711	140412	57	147045	334	0	1	28
6.1.1	win	2020-04-03	13:41:10	1	1	1	USRTblock	1	USRT	31	600000	#ff0000	10pct	1	50pct	50pct	5000	147049	152061	146711	57	152329	268	0	1	29
6.1.1	win	2020-04-03	13:41:10	1	1	1	USRTblock	1	USRT	32	600000	#ff0000	10pct	1	50pct	50pct	2000	152332	154344	152061	57	154718	374	0	1	30
6.1.1	win	2020-04-03	13:41:10	1	1	1	USRTblock	1	USRT	33	600000	#ff0000	10pct	1	50pct	50pct	8000	154722	162727	154344	57	163136	409	0	1	31
6.1.1	win	2020-04-03	13:41:10	1	1	1	USRTblock	1	USRT	34	600000	#ff0000	10pct	1	50pct	50pct	2000	163140	165159	162727	57	165570	411	0	1	32
6.1.1	win	2020-04-03	13:41:10	1	1	1	USRTblock	1	USRT	35	600000	#ff0000	10pct	1	50pct	50pct	6000	165574	171592	165159	57	171977	385	0	1	33
6.1.1	win	2020-04-03	13:41:10	1	1	1	USRTblock	1	USRT	36	600000	#ff0000	10pct	1	50pct	50pct	4000	171981	175991	171592	57	176533	542	0	1	34
6.1.1	win	2020-04-03	13:41:10	1	1	1	USRTblock	1	USRT	37	600000	#ff0000	10pct	1	50pct	50pct	8000	176537	184558	175991	57	184856	298	0	1	35
6.1.1	win	2020-04-03	13:41:10	1	1	1	USRTblock	1	USRT	38	600000	#ff0000	10pct	1	50pct	50pct	2000	184859	186874	184558	57	187285	411	0	1	36
6.1.1	win	2020-04-03	13:41:10	1	1	1	USRTblock	1	USRT	39	600000	#ff0000	10pct	1	50pct	50pct	6000	187289	193306	186874	57	193563	257	0	1	37
6.1.1	win	2020-04-03	13:41:10	1	1	1	USRTblock	1	USRT	40	600000	#ff0000	10pct	1	50pct	50pct	7000	193566	200573	193306	57	200876	303	0	1	38
6.1.1	win	2020-04-03	13:41:10	1	1	1	USRTblock	1	USRT	41	600000	#ff0000	10pct	1	50pct	50pct	4000	200880	204889	200573	57	205223	334	0	1	39
6.1.1	win	2020-04-03	13:41:10	1	1	1	USRTblock	1	USRT	42	600000	#ff0000	10pct	1	50pct	50pct	5000	205227	210238	204889	57	210505	267	0	1	40
6.1.1	win	2020-04-03	13:41:10	1	1	1	USRTblock	1	USRT	43	600000	#ff0000	10pct	1	50pct	50pct	6000	210509	216521	210238	57	216813	292	0	1	41
6.1.1	win	2020-04-03	13:41:10	1	1	1	USRTblock	1	USRT	44	600000	#ff0000	10pct	1	50pct	50pct	2000	216817	218837	216521	57	219436	599	0	1	42
6.1.1	win	2020-04-03	13:41:10	1	1	1	USRTblock	1	USRT	45	600000	#ff0000	10pct	1	50pct	50pct	7000	219440	226453	218837	57	226745	292	0	1	43
6.1.1	win	2020-04-03	13:41:10	1	1	1	USRTblock	1	USRT	46	600000	#ff0000	10pct	1	50pct	50pct	6000	226749	232769	226453	57	233074	305	0	1	44
6.1.1	win	2020-04-03	13:41:10	1	1	1	USRTblock	1	USRT	47	600000	#ff0000	10pct	1	50pct	50pct	3000	233078	236085	232769	57	236468	383	0	1	45
6.1.1	win	2020-04-03	13:41:10	1	1	1	USRTblock	1	USRT	48	600000	#ff0000	10pct	1	50pct	50pct	6000	236471	242485	236085	57	242778	293	0	1	46
6.1.1	win	2020-04-03	13:41:10	1	1	1	USRTblock	1	USRT	49	600000	#ff0000	10pct	1	50pct	50pct	2000	242782	244801	242485	57	245116	315	0	1	47
6.1.1	win	2020-04-03	13:41:10	1	1	1	USRTblock	1	USRT	50	600000	#ff0000	10pct	1	50pct	50pct	5000	245119	250135	244801	57	250422	287	0	1	48
6.1.1	win	2020-04-03	13:41:10	1	1	1	USRTblock	1	USRT	51	600000	#ff0000	10pct	1	50pct	50pct	4000	250425	254434	250135	57	254723	289	0	1	49
6.1.1	win	2020-04-03	13:41:10	1	1	1	USRTblock	1	USRT	52	600000	#ff0000	10pct	1	50pct	50pct	4000	254727	258733	254434	57	259046	313	0	1	50
6.1.1	win	2020-04-03	13:41:10	1	1	1	USRTblock	1	USRT	53	600000	#ff0000	10pct	1	50pct	50pct	2000	259050	261066	258733	57	261620	554	0	1	51
6.1.1	win	2020-04-03	13:41:10	1	1	1	USRTblock	1	USRT	54	600000	#ff0000	10pct	1	50pct	50pct	2000	261623	263632	261066	57	263876	244	0	1	52
6.1.1	win	2020-04-03	13:41:10	1	1	1	USRTblock	1	USRT	55	600000	#ff0000	10pct	1	50pct	50pct	4000	263879	267899	263632	57	268166	267	0	1	53
6.1.1	win	2020-04-03	13:41:10	1	1	1	USRTblock	1	USRT	56	600000	#ff0000	10pct	1	50pct	50pct	7000	268171	275182	267899	57	275461	279	0	1	54
6.1.1	win	2020-04-03	13:41:10	1	1	1	USRTblock	1	USRT	57	600000	#ff0000	10pct	1	50pct	50pct	2000	275464	277481	275182	57	277836	355	0	1	55
6.1.1	win	2020-04-03	13:41:10	1	1	1	USRTblock	1	USRT	58	600000	#ff0000	10pct	1	50pct	50pct	4000	277839	281847	277481	57	282145	298	0	1	56
6.1.1	win	2020-04-03	13:41:10	1	1	1	USRTblock	1	USRT	59	600000	#ff0000	10pct	1	50pct	50pct	7000	282148	289164	281847	57	289445	281	0	1	57
6.1.1	win	2020-04-03	13:41:10	1	1	1	USRTblock	1	USRT	60	600000	#ff0000	10pct	1	50pct	50pct	2000	289449	291463	289164	57	291824	361	0	1	58
6.1.1	win	2020-04-03	13:41:10	1	1	1	USRTblock	1	USRT	61	600000	#ff0000	10pct	1	50pct	50pct	8000	291827	299846	291463	57	300145	299	0	1	59
6.1.1	win	2020-04-03	13:41:10	1	1	1	USRTblock	1	USRT	62	600000	#ff0000	10pct	1	50pct	50pct	3000	300149	303163	299846	57	303515	352	0	1	60
6.1.1	win	2020-04-03	13:41:10	1	1	1	USRTblock	1	USRT	63	600000	#ff0000	10pct	1	50pct	50pct	4000	303518	307528	303163	57	307803	275	0	1	61
6.1.1	win	2020-04-03	13:41:10	1	1	1	USRTblock	1	USRT	64	600000	#ff0000	10pct	1	50pct	50pct	3000	307807	310828	307528	57	311266	438	0	1	62
6.1.1	win	2020-04-03	13:41:10	1	1	1	USRTblock	1	USRT	65	600000	#ff0000	10pct	1	50pct	50pct	3000	311269	314277	310828	57	314659	382	0	1	63
6.1.1	win	2020-04-03	13:41:10	1	1	1	USRTblock	1	USRT	66	600000	#ff0000	10pct	1	50pct	50pct	3000	314663	317677	314277	57	318029	352	0	1	64
6.1.1	win	2020-04-03	13:41:10	1	1	1	USRTblock	1	USRT	67	600000	#ff0000	10pct	1	50pct	50pct	2000	318033	320043	317677	57	320489	446	0	1	65
6.1.1	win	2020-04-03	13:41:10	1	1	1	USRTblock	1	USRT	68	600000	#ff0000	10pct	1	50pct	50pct	8000	320493	328510	320043	57	328846	336	0	1	66
6.1.1	win	2020-04-03	13:41:10	1	1	1	USRTblock	1	USRT	69	600000	#ff0000	10pct	1	50pct	50pct	8000	328849	336859	328510	57	337162	303	0	1	67
6.1.1	win	2020-04-03	13:41:10	1	1	1	USRTblock	1	USRT	70	600000	#ff0000	10pct	1	50pct	50pct	7000	337165	344175	336859	57	344437	262	0	1	68
6.1.1	win	2020-04-03	13:41:10	1	1	1	USRTblock	1	USRT	71	600000	#ff0000	10pct	1	50pct	50pct	2000	344440	346458	344175	57	346911	453	0	1	69
6.1.1	win	2020-04-03	13:41:10	1	1	1	USRTblock	1	USRT	72	600000	#ff0000	10pct	1	50pct	50pct	5000	346914	351924	346458	57	352198	274	0	1	70
6.1.1	win	2020-04-03	13:41:10	1	1	1	USRTblock	1	USRT	73	600000	#ff0000	10pct	1	50pct	50pct	6000	352202	358207	351924	57	358481	274	0	1	71
6.1.1	win	2020-04-03	13:41:10	1	1	1	USRTblock	1	USRT	74	600000	#ff0000	10pct	1	50pct	50pct	2000	358485	360489	358207	57	360758	269	0	1	72
6.1.1	win	2020-04-03	13:41:10	1	1	1	USRTblock	1	USRT	75	600000	#ff0000	10pct	1	50pct	50pct	4000	360761	364773	360489	57	365069	296	0	1	73
6.1.1	win	2020-04-03	13:41:10	1	1	1	USRTblock	1	USRT	76	600000	#ff0000	10pct	1	50pct	50pct	2000	365073	367089	364773	57	367396	307	0	1	74
6.1.1	win	2020-04-03	13:41:10	1	1	1	USRTblock	1	USRT	77	600000	#ff0000	10pct	1	50pct	50pct	8000	367399	375405	367089	57	375682	277	0	1	75
6.1.1	win	2020-04-03	13:41:10	1	1	1	USRTblock	1	USRT	78	600000	#ff0000	10pct	1	50pct	50pct	5000	375686	380704	375405	57	380966	262	0	1	76
6.1.1	win	2020-04-03	13:41:10	1	1	1	USRTblock	1	USRT	79	600000	#ff0000	10pct	1	50pct	50pct	2000	380969	382987	380704	57	383302	315	0	1	77
6.1.1	win	2020-04-03	13:41:10	1	1	1	USRTblock	1	USRT	80	600000	#ff0000	10pct	1	50pct	50pct	6000	383305	389320	382987	57	389555	235	0	1	78
6.1.1	win	2020-04-03	13:41:10	1	1	1	USRTblock	1	USRT	81	600000	#ff0000	10pct	1	50pct	50pct	6000	389559	395569	389320	57	395848	279	0	1	79
6.1.1	win	2020-04-03	13:41:10	1	1	1	USRTblock	1	USRT	82	600000	#ff0000	10pct	1	50pct	50pct	5000	395853	400869	395569	57	401115	246	0	1	80
6.1.1	win	2020-04-03	13:41:10	1	1	1	USRTblock	1	USRT	83	600000	#ff0000	10pct	1	50pct	50pct	7000	401118	408135	400869	57	408399	264	0	1	81
6.1.1	win	2020-04-03	13:41:10	1	1	1	USRTblock	1	USRT	84	600000	#ff0000	10pct	1	50pct	50pct	7000	408403	415418	408135	57	415680	262	0	1	82
6.1.1	win	2020-04-03	13:41:10	1	1	1	USRTblock	1	USRT	85	600000	#ff0000	10pct	1	50pct	50pct	7000	415684	-1	415418	57	417899	0	1	2	83
6.1.1	win	2020-04-03	13:41:10	1	1	1	USRTblock	1	USRT	86	600000	#ff0000	10pct	1	50pct	50pct	7000	417903	424917	-1	57	425387	470	0	2	84
6.1.1	win	2020-04-03	13:41:10	1	1	1	USRTblock	1	USRT	87	600000	#ff0000	10pct	1	50pct	50pct	4000	425390	429400	424917	57	429796	396	0	2	85
6.1.1	win	2020-04-03	13:41:10	1	1	1	USRTblock	1	USRT	88	600000	#ff0000	10pct	1	50pct	50pct	7000	429800	436816	429400	57	437133	317	0	2	86
6.1.1	win	2020-04-03	13:41:10	1	1	1	USRTblock	1	USRT	89	600000	#ff0000	10pct	1	50pct	50pct	2000	437137	439148	436816	57	439487	339	0	2	87
6.1.1	win	2020-04-03	13:41:10	1	1	1	USRTblock	1	USRT	90	600000	#ff0000	10pct	1	50pct	50pct	8000	439490	447498	439148	57	447826	328	0	2	88
6.1.1	win	2020-04-03	13:41:10	1	1	1	USRTblock	1	USRT	91	600000	#ff0000	10pct	1	50pct	50pct	3000	447830	450847	447498	57	451529	682	0	2	89
6.1.1	win	2020-04-03	13:41:10	1	1	1	USRTblock	1	USRT	92	600000	#ff0000	10pct	1	50pct	50pct	6000	451533	457547	450847	57	457780	233	0	2	90
6.1.1	win	2020-04-03	13:41:10	1	1	1	USRTblock	1	USRT	93	600000	#ff0000	10pct	1	50pct	50pct	8000	457783	465797	457547	57	466150	353	0	2	91
6.1.1	win	2020-04-03	13:41:10	1	1	1	USRTblock	1	USRT	94	600000	#ff0000	10pct	1	50pct	50pct	5000	466153	471162	465797	57	471465	303	0	2	92
6.1.1	win	2020-04-03	13:41:10	1	1	1	USRTblock	1	USRT	95	600000	#ff0000	10pct	1	50pct	50pct	4000	471468	475478	471162	57	475785	307	0	2	93
6.1.1	win	2020-04-03	13:41:10	1	1	1	USRTblock	1	USRT	96	600000	#ff0000	10pct	1	50pct	50pct	2000	475788	477794	475478	57	478074	280	0	2	94
6.1.1	win	2020-04-03	13:41:10	1	1	1	USRTblock	1	USRT	97	600000	#ff0000	10pct	1	50pct	50pct	8000	478078	486094	477794	57	486374	280	0	2	95
6.1.1	win	2020-04-03	13:41:10	1	1	1	USRTblock	1	USRT	98	600000	#ff0000	10pct	1	50pct	50pct	3000	486378	489393	486094	57	489695	302	0	2	96
6.1.1	win	2020-04-03	13:41:10	1	1	1	USRTblock	1	USRT	99	600000	#ff0000	10pct	1	50pct	50pct	8000	489699	497710	489393	57	498013	303	0	2	97
6.1.1	win	2020-04-03	13:41:10	1	1	1	USRTblock	1	USRT	100	600000	#ff0000	10pct	1	50pct	50pct	3000	498017	501026	497710	57	501310	284	0	2	98
6.1.1	win	2020-04-03	13:41:10	1	1	1	USRTblock	1	USRT	101	600000	#ff0000	10pct	1	50pct	50pct	6000	501314	507324	501026	57	507585	261	0	2	99
6.1.1	win	2020-04-03	13:41:10	1	1	1	USRTblock	1	USRT	102	600000	#ff0000	10pct	1	50pct	50pct	5000	507588	512608	507324	57	512956	348	0	2	100
6.1.1	win	2020-04-03	13:41:10	1	1	1	USRTblock	1	USRT	103	600000	#ff0000	10pct	1	50pct	50pct	8000	512960	520974	512608	57	521237	263	0	2	101
6.1.1	win	2020-04-03	13:41:10	1	1	1	USRTblock	1	USRT	104	600000	#ff0000	10pct	1	50pct	50pct	6000	521240	527257	520974	57	527504	247	0	2	102
6.1.1	win	2020-04-03	13:41:10	1	1	1	USRTblock	1	USRT	105	600000	#ff0000	10pct	1	50pct	50pct	6000	527507	533522	527257	57	533884	362	0	2	103
6.1.1	win	2020-04-03	13:41:10	1	1	1	USRTblock	1	USRT	106	600000	#ff0000	10pct	1	50pct	50pct	3000	533889	536905	533522	57	537193	288	0	2	104
6.1.1	win	2020-04-03	13:41:10	1	1	1	USRTblock	1	USRT	107	600000	#ff0000	10pct	1	50pct	50pct	5000	537196	542205	536905	57	542483	278	0	2	105
6.1.1	win	2020-04-03	13:41:10	1	1	1	USRTblock	1	USRT	108	600000	#ff0000	10pct	1	50pct	50pct	7000	542487	549504	542205	57	549761	257	0	2	106
6.1.1	win	2020-04-03	13:41:10	1	1	1	USRTblock	1	USRT	109	600000	#ff0000	10pct	1	50pct	50pct	5000	549765	554787	549504	57	555113	326	0	2	107
6.1.1	win	2020-04-03	13:41:10	1	1	1	USRTblock	1	USRT	110	600000	#ff0000	10pct	1	50pct	50pct	8000	555117	563136	554787	57	563481	345	0	2	108
6.1.1	win	2020-04-03	13:41:10	1	1	1	USRTblock	1	USRT	111	600000	#ff0000	10pct	1	50pct	50pct	5000	563485	568502	563136	57	568802	300	0	2	109
6.1.1	win	2020-04-03	13:41:10	1	1	1	USRTblock	1	USRT	112	600000	#ff0000	10pct	1	50pct	50pct	7000	568806	575818	568502	57	576141	323	0	2	110
6.1.1	win	2020-04-03	13:41:10	1	1	1	USRTblock	1	USRT	113	600000	#ff0000	10pct	1	50pct	50pct	5000	576145	581151	575818	57	581588	437	0	2	111
6.1.1	win	2020-04-03	13:41:10	1	1	1	USRTblock	1	USRT	114	600000	#ff0000	10pct	1	50pct	50pct	2000	581592	583601	581151	57	583929	328	0	2	112
6.1.1	win	2020-04-03	13:41:10	1	1	1	USRTblock	1	USRT	115	600000	#ff0000	10pct	1	50pct	50pct	8000	583933	591950	583601	57	592277	327	0	2	113
6.1.1	win	2020-04-03	13:41:10	1	1	1	USRTblock	1	USRT	116	600000	#ff0000	10pct	1	50pct	50pct	3000	592280	595299	591950	57	595613	314	0	2	114
6.1.1	win	2020-04-03	13:41:10	1	1	1	USRTblock	1	USRT	117	600000	#ff0000	10pct	1	50pct	50pct	2000	595617	597633	595299	57	597906	273	0	2	115
6.1.1	win	2020-04-03	13:41:10	1	1	1	USRTblock	1	USRT	118	600000	#ff0000	10pct	1	50pct	50pct	6000	597910	-1	597633	0	597995	0	1	3	116
