build	computer.platform	date	time	subject	group	sessionid	blockcode	blocknum	trialcode	trialnum	testduration	targetcolor	targetsize	fixed	targetx	targety	stiminterval	trialStart	shape.targetcircle.timestamp	lastCircleTimestamp	response	rt_elapsed	rt	EarlyResponse	countEarlyResponses	countResponses
6.1.1	win	2020-04-03	16:00:53	1	1	1	USRTblock	1	USRT	3	600000	#ff0000	10pct	1	50pct	50pct	3000	3142	6154	2251	57	6443	289	0	0	1
6.1.1	win	2020-04-03	16:00:53	1	1	1	USRTblock	1	USRT	4	600000	#ff0000	10pct	1	50pct	50pct	8000	6461	14470	6154	57	14718	248	0	0	2
6.1.1	win	2020-04-03	16:00:53	1	1	1	USRTblock	1	USRT	5	600000	#ff0000	10pct	1	50pct	50pct	7000	14721	21736	14470	57	22039	303	0	0	3
6.1.1	win	2020-04-03	16:00:53	1	1	1	USRTblock	1	USRT	6	600000	#ff0000	10pct	1	50pct	50pct	8000	22042	30052	21736	57	30302	250	0	0	4
6.1.1	win	2020-04-03	16:00:53	1	1	1	USRTblock	1	USRT	7	600000	#ff0000	10pct	1	50pct	50pct	3000	30305	33318	30052	57	33732	414	0	0	5
6.1.1	win	2020-04-03	16:00:53	1	1	1	USRTblock	1	USRT	8	600000	#ff0000	10pct	1	50pct	50pct	3000	33736	36751	33318	57	37042	291	0	0	6
6.1.1	win	2020-04-03	16:00:53	1	1	1	USRTblock	1	USRT	9	600000	#ff0000	10pct	1	50pct	50pct	3000	37045	40050	36751	57	40320	270	0	0	7
6.1.1	win	2020-04-03	16:00:53	1	1	1	USRTblock	1	USRT	10	600000	#ff0000	10pct	1	50pct	50pct	5000	40324	45333	40050	57	45627	294	0	0	8
6.1.1	win	2020-04-03	16:00:53	1	1	1	USRTblock	1	USRT	11	600000	#ff0000	10pct	1	50pct	50pct	2000	45631	47650	45333	57	47903	253	0	0	9
6.1.1	win	2020-04-03	16:00:53	1	1	1	USRTblock	1	USRT	12	600000	#ff0000	10pct	1	50pct	50pct	4000	47907	51916	47650	57	52194	278	0	0	10
6.1.1	win	2020-04-03	16:00:53	1	1	1	USRTblock	1	USRT	13	600000	#ff0000	10pct	1	50pct	50pct	2000	52198	54216	51916	57	54623	407	0	0	11
6.1.1	win	2020-04-03	16:00:53	1	1	1	USRTblock	1	USRT	14	600000	#ff0000	10pct	1	50pct	50pct	5000	54627	59632	54216	57	59938	306	0	0	12
6.1.1	win	2020-04-03	16:00:53	1	1	1	USRTblock	1	USRT	15	600000	#ff0000	10pct	1	50pct	50pct	7000	59942	66948	59632	57	67225	277	0	0	13
6.1.1	win	2020-04-03	16:00:53	1	1	1	USRTblock	1	USRT	16	600000	#ff0000	10pct	1	50pct	50pct	5000	67229	72248	66948	57	72498	250	0	0	14
6.1.1	win	2020-04-03	16:00:53	1	1	1	USRTblock	1	USRT	17	600000	#ff0000	10pct	1	50pct	50pct	5000	72502	77513	72248	57	77777	264	0	0	15
6.1.1	win	2020-04-03	16:00:53	1	1	1	USRTblock	1	USRT	18	600000	#ff0000	10pct	1	50pct	50pct	2000	77782	79797	77513	57	80236	439	0	0	16
6.1.1	win	2020-04-03	16:00:53	1	1	1	USRTblock	1	USRT	19	600000	#ff0000	10pct	1	50pct	50pct	5000	80239	85246	79797	57	85543	297	0	0	17
6.1.1	win	2020-04-03	16:00:53	1	1	1	USRTblock	1	USRT	20	600000	#ff0000	10pct	1	50pct	50pct	2000	85546	87563	85246	57	87931	368	0	0	18
6.1.1	win	2020-04-03	16:00:53	1	1	1	USRTblock	1	USRT	21	600000	#ff0000	10pct	1	50pct	50pct	6000	87936	93945	87563	57	94213	268	0	0	19
6.1.1	win	2020-04-03	16:00:53	1	1	1	USRTblock	1	USRT	22	600000	#ff0000	10pct	1	50pct	50pct	5000	94217	99228	93945	57	99497	269	0	0	20
6.1.1	win	2020-04-03	16:00:53	1	1	1	USRTblock	1	USRT	23	600000	#ff0000	10pct	1	50pct	50pct	2000	99501	101511	99228	57	101947	436	0	0	21
6.1.1	win	2020-04-03	16:00:53	1	1	1	USRTblock	1	USRT	24	600000	#ff0000	10pct	1	50pct	50pct	2000	101952	103961	101511	57	104292	331	0	0	22
6.1.1	win	2020-04-03	16:00:53	1	1	1	USRTblock	1	USRT	25	600000	#ff0000	10pct	1	50pct	50pct	4000	104295	108310	103961	57	108572	262	0	0	23
6.1.1	win	2020-04-03	16:00:53	1	1	1	USRTblock	1	USRT	26	600000	#ff0000	10pct	1	50pct	50pct	7000	108575	115593	108310	57	115879	286	0	0	24
6.1.1	win	2020-04-03	16:00:53	1	1	1	USRTblock	1	USRT	27	600000	#ff0000	10pct	1	50pct	50pct	6000	115883	121892	115593	57	122132	240	0	0	25
6.1.1	win	2020-04-03	16:00:53	1	1	1	USRTblock	1	USRT	28	600000	#ff0000	10pct	1	50pct	50pct	4000	122135	126142	121892	57	126537	395	0	0	26
6.1.1	win	2020-04-03	16:00:53	1	1	1	USRTblock	1	USRT	29	600000	#ff0000	10pct	1	50pct	50pct	2000	126540	128558	126142	57	128885	327	0	0	27
6.1.1	win	2020-04-03	16:00:53	1	1	1	USRTblock	1	USRT	30	600000	#ff0000	10pct	1	50pct	50pct	7000	128889	135908	128558	57	136164	256	0	0	28
6.1.1	win	2020-04-03	16:00:53	1	1	1	USRTblock	1	USRT	31	600000	#ff0000	10pct	1	50pct	50pct	2000	136168	138175	135908	57	138507	332	0	0	29
6.1.1	win	2020-04-03	16:00:53	1	1	1	USRTblock	1	USRT	32	600000	#ff0000	10pct	1	50pct	50pct	7000	138511	145524	138175	57	145826	302	0	0	30
6.1.1	win	2020-04-03	16:00:53	1	1	1	USRTblock	1	USRT	33	600000	#ff0000	10pct	1	50pct	50pct	6000	145830	151840	145524	57	152149	309	0	0	31
6.1.1	win	2020-04-03	16:00:53	1	1	1	USRTblock	1	USRT	34	600000	#ff0000	10pct	1	50pct	50pct	4000	152152	156172	151840	57	156455	283	0	0	32
6.1.1	win	2020-04-03	16:00:53	1	1	1	USRTblock	1	USRT	35	600000	#ff0000	10pct	1	50pct	50pct	3000	156458	159472	156172	57	159905	433	0	0	33
6.1.1	win	2020-04-03	16:00:53	1	1	1	USRTblock	1	USRT	36	600000	#ff0000	10pct	1	50pct	50pct	5000	159909	164921	159472	57	165222	301	0	0	34
6.1.1	win	2020-04-03	16:00:53	1	1	1	USRTblock	1	USRT	37	600000	#ff0000	10pct	1	50pct	50pct	6000	165225	171237	164921	57	171529	292	0	0	35
6.1.1	win	2020-04-03	16:00:53	1	1	1	USRTblock	1	USRT	38	600000	#ff0000	10pct	1	50pct	50pct	6000	171533	177553	171237	57	177847	294	0	0	36
6.1.1	win	2020-04-03	16:00:53	1	1	1	USRTblock	1	USRT	39	600000	#ff0000	10pct	1	50pct	50pct	2000	177850	179870	177553	57	180172	302	0	0	37
6.1.1	win	2020-04-03	16:00:53	1	1	1	USRTblock	1	USRT	40	600000	#ff0000	10pct	1	50pct	50pct	3000	180175	183187	179870	57	183421	234	0	0	38
6.1.1	win	2020-04-03	16:00:53	1	1	1	USRTblock	1	USRT	41	600000	#ff0000	10pct	1	50pct	50pct	4000	183425	187436	183187	57	187662	226	0	0	39
6.1.1	win	2020-04-03	16:00:53	1	1	1	USRTblock	1	USRT	42	600000	#ff0000	10pct	1	50pct	50pct	5000	187666	192686	187436	57	192919	233	0	0	40
6.1.1	win	2020-04-03	16:00:53	1	1	1	USRTblock	1	USRT	43	600000	#ff0000	10pct	1	50pct	50pct	6000	192922	198935	192686	57	199143	208	0	0	41
6.1.1	win	2020-04-03	16:00:53	1	1	1	USRTblock	1	USRT	44	600000	#ff0000	10pct	1	50pct	50pct	6000	199146	205168	198935	57	205414	246	0	0	42
6.1.1	win	2020-04-03	16:00:53	1	1	1	USRTblock	1	USRT	45	600000	#ff0000	10pct	1	50pct	50pct	3000	205417	208434	205168	57	208834	400	0	0	43
6.1.1	win	2020-04-03	16:00:53	1	1	1	USRTblock	1	USRT	46	600000	#ff0000	10pct	1	50pct	50pct	8000	208838	216850	208434	57	217104	254	0	0	44
6.1.1	win	2020-04-03	16:00:53	1	1	1	USRTblock	1	USRT	47	600000	#ff0000	10pct	1	50pct	50pct	8000	217107	225116	216850	57	225370	254	0	0	45
6.1.1	win	2020-04-03	16:00:53	1	1	1	USRTblock	1	USRT	48	600000	#ff0000	10pct	1	50pct	50pct	8000	225373	233381	225116	57	233648	267	0	0	46
6.1.1	win	2020-04-03	16:00:53	1	1	1	USRTblock	1	USRT	49	600000	#ff0000	10pct	1	50pct	50pct	3000	233651	236664	233381	57	237000	336	0	0	47
6.1.1	win	2020-04-03	16:00:53	1	1	1	USRTblock	1	USRT	50	600000	#ff0000	10pct	1	50pct	50pct	3000	237003	240014	236664	57	240338	324	0	0	48
6.1.1	win	2020-04-03	16:00:53	1	1	1	USRTblock	1	USRT	51	600000	#ff0000	10pct	1	50pct	50pct	2000	240342	242347	240014	57	242662	315	0	0	49
6.1.1	win	2020-04-03	16:00:53	1	1	1	USRTblock	1	USRT	52	600000	#ff0000	10pct	1	50pct	50pct	3000	242666	245680	242347	57	246041	361	0	0	50
6.1.1	win	2020-04-03	16:00:53	1	1	1	USRTblock	1	USRT	53	600000	#ff0000	10pct	1	50pct	50pct	7000	246044	253063	245680	57	253391	328	0	0	51
6.1.1	win	2020-04-03	16:00:53	1	1	1	USRTblock	1	USRT	54	600000	#ff0000	10pct	1	50pct	50pct	6000	253395	259412	253063	57	259666	254	0	0	52
6.1.1	win	2020-04-03	16:00:53	1	1	1	USRTblock	1	USRT	55	600000	#ff0000	10pct	1	50pct	50pct	4000	259670	263678	259412	57	263936	258	0	0	53
6.1.1	win	2020-04-03	16:00:53	1	1	1	USRTblock	1	USRT	56	600000	#ff0000	10pct	1	50pct	50pct	3000	263940	266944	263678	57	267267	323	0	0	54
6.1.1	win	2020-04-03	16:00:53	1	1	1	USRTblock	1	USRT	57	600000	#ff0000	10pct	1	50pct	50pct	7000	267270	274277	266944	57	274647	370	0	0	55
6.1.1	win	2020-04-03	16:00:53	1	1	1	USRTblock	1	USRT	58	600000	#ff0000	10pct	1	50pct	50pct	7000	274650	281660	274277	57	281909	249	0	0	56
6.1.1	win	2020-04-03	16:00:53	1	1	1	USRTblock	1	USRT	59	600000	#ff0000	10pct	1	50pct	50pct	3000	281913	284926	281660	57	285274	348	0	0	57
6.1.1	win	2020-04-03	16:00:53	1	1	1	USRTblock	1	USRT	60	600000	#ff0000	10pct	1	50pct	50pct	3000	285278	288292	284926	57	288589	297	0	0	58
6.1.1	win	2020-04-03	16:00:53	1	1	1	USRTblock	1	USRT	61	600000	#ff0000	10pct	1	50pct	50pct	3000	288593	291609	288292	57	291871	262	0	0	59
6.1.1	win	2020-04-03	16:00:53	1	1	1	USRTblock	1	USRT	62	600000	#ff0000	10pct	1	50pct	50pct	3000	291874	294892	291609	57	295186	294	0	0	60
6.1.1	win	2020-04-03	16:00:53	1	1	1	USRTblock	1	USRT	63	600000	#ff0000	10pct	1	50pct	50pct	3000	295190	298208	294892	57	298481	273	0	0	61
6.1.1	win	2020-04-03	16:00:53	1	1	1	USRTblock	1	USRT	64	600000	#ff0000	10pct	1	50pct	50pct	5000	298484	303491	298208	57	303750	259	0	0	62
6.1.1	win	2020-04-03	16:00:53	1	1	1	USRTblock	1	USRT	65	600000	#ff0000	10pct	1	50pct	50pct	7000	303753	310774	303491	57	311223	449	0	0	63
6.1.1	win	2020-04-03	16:00:53	1	1	1	USRTblock	1	USRT	66	600000	#ff0000	10pct	1	50pct	50pct	4000	311227	315239	310774	57	315570	331	0	0	64
6.1.1	win	2020-04-03	16:00:53	1	1	1	USRTblock	1	USRT	67	600000	#ff0000	10pct	1	50pct	50pct	5000	315574	320589	315239	57	320889	300	0	0	65
6.1.1	win	2020-04-03	16:00:53	1	1	1	USRTblock	1	USRT	68	600000	#ff0000	10pct	1	50pct	50pct	2000	320893	322905	320589	57	323285	380	0	0	66
6.1.1	win	2020-04-03	16:00:53	1	1	1	USRTblock	1	USRT	69	600000	#ff0000	10pct	1	50pct	50pct	4000	323290	327305	322905	57	327691	386	0	0	67
6.1.1	win	2020-04-03	16:00:53	1	1	1	USRTblock	1	USRT	70	600000	#ff0000	10pct	1	50pct	50pct	2000	327694	329705	327305	57	329977	272	0	0	68
6.1.1	win	2020-04-03	16:00:53	1	1	1	USRTblock	1	USRT	71	600000	#ff0000	10pct	1	50pct	50pct	6000	329981	335988	329705	57	336244	256	0	0	69
6.1.1	win	2020-04-03	16:00:53	1	1	1	USRTblock	1	USRT	72	600000	#ff0000	10pct	1	50pct	50pct	3000	336248	339254	335988	57	339499	245	0	0	70
6.1.1	win	2020-04-03	16:00:53	1	1	1	USRTblock	1	USRT	73	600000	#ff0000	10pct	1	50pct	50pct	2000	339502	341520	339254	57	341790	270	0	0	71
6.1.1	win	2020-04-03	16:00:53	1	1	1	USRTblock	1	USRT	74	600000	#ff0000	10pct	1	50pct	50pct	7000	341795	348803	341520	57	349054	251	0	0	72
6.1.1	win	2020-04-03	16:00:53	1	1	1	USRTblock	1	USRT	75	600000	#ff0000	10pct	1	50pct	50pct	3000	349058	352069	348803	57	352299	230	0	0	73
6.1.1	win	2020-04-03	16:00:53	1	1	1	USRTblock	1	USRT	76	600000	#ff0000	10pct	1	50pct	50pct	4000	352303	356319	352069	57	356565	246	0	0	74
6.1.1	win	2020-04-03	16:00:53	1	1	1	USRTblock	1	USRT	77	600000	#ff0000	10pct	1	50pct	50pct	6000	356568	362585	356319	57	362844	259	0	0	75
6.1.1	win	2020-04-03	16:00:53	1	1	1	USRTblock	1	USRT	78	600000	#ff0000	10pct	1	50pct	50pct	8000	362847	370868	362585	57	371152	284	0	0	76
6.1.1	win	2020-04-03	16:00:53	1	1	1	USRTblock	1	USRT	79	600000	#ff0000	10pct	1	50pct	50pct	8000	371155	379167	370868	57	379574	407	0	0	77
6.1.1	win	2020-04-03	16:00:53	1	1	1	USRTblock	1	USRT	80	600000	#ff0000	10pct	1	50pct	50pct	8000	379578	387599	379167	57	387937	338	0	0	78
6.1.1	win	2020-04-03	16:00:53	1	1	1	USRTblock	1	USRT	81	600000	#ff0000	10pct	1	50pct	50pct	3000	387941	390949	387599	57	391411	462	0	0	79
6.1.1	win	2020-04-03	16:00:53	1	1	1	USRTblock	1	USRT	82	600000	#ff0000	10pct	1	50pct	50pct	2000	391415	393431	390949	57	393768	337	0	0	80
6.1.1	win	2020-04-03	16:00:53	1	1	1	USRTblock	1	USRT	83	600000	#ff0000	10pct	1	50pct	50pct	2000	393771	395782	393431	57	396082	300	0	0	81
6.1.1	win	2020-04-03	16:00:53	1	1	1	USRTblock	1	USRT	84	600000	#ff0000	10pct	1	50pct	50pct	6000	396086	402097	395782	57	402402	305	0	0	82
6.1.1	win	2020-04-03	16:00:53	1	1	1	USRTblock	1	USRT	85	600000	#ff0000	10pct	1	50pct	50pct	7000	402405	409414	402097	57	409671	257	0	0	83
6.1.1	win	2020-04-03	16:00:53	1	1	1	USRTblock	1	USRT	86	600000	#ff0000	10pct	1	50pct	50pct	2000	409675	411697	409414	57	412068	371	0	0	84
6.1.1	win	2020-04-03	16:00:53	1	1	1	USRTblock	1	USRT	87	600000	#ff0000	10pct	1	50pct	50pct	5000	412072	417079	411697	57	417334	255	0	0	85
6.1.1	win	2020-04-03	16:00:53	1	1	1	USRTblock	1	USRT	88	600000	#ff0000	10pct	1	50pct	50pct	5000	417338	422345	417079	57	422590	245	0	0	86
6.1.1	win	2020-04-03	16:00:53	1	1	1	USRTblock	1	USRT	89	600000	#ff0000	10pct	1	50pct	50pct	7000	422593	429612	422345	57	429851	239	0	0	87
6.1.1	win	2020-04-03	16:00:53	1	1	1	USRTblock	1	USRT	90	600000	#ff0000	10pct	1	50pct	50pct	7000	429855	436861	429612	57	437121	260	0	0	88
6.1.1	win	2020-04-03	16:00:53	1	1	1	USRTblock	1	USRT	91	600000	#ff0000	10pct	1	50pct	50pct	7000	437125	444144	436861	57	444376	232	0	0	89
6.1.1	win	2020-04-03	16:00:53	1	1	1	USRTblock	1	USRT	92	600000	#ff0000	10pct	1	50pct	50pct	7000	444379	451393	444144	57	451652	259	0	0	90
6.1.1	win	2020-04-03	16:00:53	1	1	1	USRTblock	1	USRT	93	600000	#ff0000	10pct	1	50pct	50pct	7000	451655	458676	451393	57	458948	272	0	0	91
6.1.1	win	2020-04-03	16:00:53	1	1	1	USRTblock	1	USRT	94	600000	#ff0000	10pct	1	50pct	50pct	6000	458951	464958	458676	57	465271	313	0	0	92
6.1.1	win	2020-04-03	16:00:53	1	1	1	USRTblock	1	USRT	95	600000	#ff0000	10pct	1	50pct	50pct	3000	465275	468291	464958	57	468643	352	0	0	93
6.1.1	win	2020-04-03	16:00:53	1	1	1	USRTblock	1	USRT	96	600000	#ff0000	10pct	1	50pct	50pct	7000	468647	475658	468291	57	475916	258	0	0	94
6.1.1	win	2020-04-03	16:00:53	1	1	1	USRTblock	1	USRT	97	600000	#ff0000	10pct	1	50pct	50pct	3000	475920	478940	475658	57	479195	255	0	0	95
6.1.1	win	2020-04-03	16:00:53	1	1	1	USRTblock	1	USRT	98	600000	#ff0000	10pct	1	50pct	50pct	2000	479199	481206	478940	57	481506	300	0	0	96
6.1.1	win	2020-04-03	16:00:53	1	1	1	USRTblock	1	USRT	99	600000	#ff0000	10pct	1	50pct	50pct	7000	481510	488523	481206	57	488797	274	0	0	97
6.1.1	win	2020-04-03	16:00:53	1	1	1	USRTblock	1	USRT	100	600000	#ff0000	10pct	1	50pct	50pct	4000	488800	492805	488523	57	493097	292	0	0	98
6.1.1	win	2020-04-03	16:00:53	1	1	1	USRTblock	1	USRT	101	600000	#ff0000	10pct	1	50pct	50pct	4000	493100	497104	492805	57	497399	295	0	0	99
6.1.1	win	2020-04-03	16:00:53	1	1	1	USRTblock	1	USRT	102	600000	#ff0000	10pct	1	50pct	50pct	3000	497403	500421	497104	57	500885	464	0	0	100
6.1.1	win	2020-04-03	16:00:53	1	1	1	USRTblock	1	USRT	103	600000	#ff0000	10pct	1	50pct	50pct	2000	500889	502904	500421	57	503180	276	0	0	101
6.1.1	win	2020-04-03	16:00:53	1	1	1	USRTblock	1	USRT	104	600000	#ff0000	10pct	1	50pct	50pct	5000	503183	508204	502904	57	508483	279	0	0	102
6.1.1	win	2020-04-03	16:00:53	1	1	1	USRTblock	1	USRT	105	600000	#ff0000	10pct	1	50pct	50pct	4000	508487	512504	508204	57	512765	261	0	0	103
6.1.1	win	2020-04-03	16:00:53	1	1	1	USRTblock	1	USRT	106	600000	#ff0000	10pct	1	50pct	50pct	8000	512769	520786	512504	57	520985	199	0	0	104
6.1.1	win	2020-04-03	16:00:53	1	1	1	USRTblock	1	USRT	107	600000	#ff0000	10pct	1	50pct	50pct	7000	520989	528002	520786	57	528252	250	0	0	105
6.1.1	win	2020-04-03	16:00:53	1	1	1	USRTblock	1	USRT	108	600000	#ff0000	10pct	1	50pct	50pct	6000	528256	534268	528002	57	534527	259	0	0	106
6.1.1	win	2020-04-03	16:00:53	1	1	1	USRTblock	1	USRT	109	600000	#ff0000	10pct	1	50pct	50pct	4000	534530	538551	534268	57	538837	286	0	0	107
6.1.1	win	2020-04-03	16:00:53	1	1	1	USRTblock	1	USRT	110	600000	#ff0000	10pct	1	50pct	50pct	2000	538840	540851	538551	57	541171	320	0	0	108
6.1.1	win	2020-04-03	16:00:53	1	1	1	USRTblock	1	USRT	111	600000	#ff0000	10pct	1	50pct	50pct	6000	541175	547184	540851	57	547454	270	0	0	109
6.1.1	win	2020-04-03	16:00:53	1	1	1	USRTblock	1	USRT	112	600000	#ff0000	10pct	1	50pct	50pct	8000	547457	555466	547184	57	555733	267	0	0	110
6.1.1	win	2020-04-03	16:00:53	1	1	1	USRTblock	1	USRT	113	600000	#ff0000	10pct	1	50pct	50pct	4000	555737	559749	555466	57	560025	276	0	0	111
6.1.1	win	2020-04-03	16:00:53	1	1	1	USRTblock	1	USRT	114	600000	#ff0000	10pct	1	50pct	50pct	8000	560028	568048	559749	57	568379	331	0	0	112
6.1.1	win	2020-04-03	16:00:53	1	1	1	USRTblock	1	USRT	115	600000	#ff0000	10pct	1	50pct	50pct	8000	568382	576398	568048	57	576676	278	0	0	113
6.1.1	win	2020-04-03	16:00:53	1	1	1	USRTblock	1	USRT	116	600000	#ff0000	10pct	1	50pct	50pct	8000	576679	584696	576398	57	585125	429	0	0	114
6.1.1	win	2020-04-03	16:00:53	1	1	1	USRTblock	1	USRT	117	600000	#ff0000	10pct	1	50pct	50pct	4000	585129	589145	584696	57	589422	277	0	0	115
6.1.1	win	2020-04-03	16:00:53	1	1	1	USRTblock	1	USRT	118	600000	#ff0000	10pct	1	50pct	50pct	3000	589426	592446	589145	57	592768	322	0	0	116
6.1.1	win	2020-04-03	16:00:53	1	1	1	USRTblock	1	USRT	119	600000	#ff0000	10pct	1	50pct	50pct	8000	592772	600778	592446	57	601059	281	0	0	117
6.1.1	win	2020-04-03	16:00:53	1	1	1	USRTblock	1	USRT	120	600000	#ff0000	10pct	1	50pct	50pct	7000	601063	-1	600778	0	601164	0	1	1	118
