build	computer.platform	date	time	subject	group	sessionid	blockcode	blocknum	trialcode	trialnum	testduration	targetcolor	targetsize	fixed	targetx	targety	stiminterval	trialStart	shape.targetcircle.timestamp	lastCircleTimestamp	response	rt_elapsed	rt	EarlyResponse	countEarlyResponses	countResponses
6.1.1	win	2020-04-22	16:07:05	1	1	1	USRTblock	1	USRT	3	600000	#ff0000	10pct	1	50pct	50pct	8000	10282	18289	9553	57	18529	240	0	0	1
6.1.1	win	2020-04-22	16:07:05	1	1	1	USRTblock	1	USRT	4	600000	#ff0000	10pct	1	50pct	50pct	3000	18564	21572	18289	57	21843	271	0	0	2
6.1.1	win	2020-04-22	16:07:05	1	1	1	USRTblock	1	USRT	5	600000	#ff0000	10pct	1	50pct	50pct	4000	21846	25855	21572	57	26113	258	0	0	3
6.1.1	win	2020-04-22	16:07:05	1	1	1	USRTblock	1	USRT	6	600000	#ff0000	10pct	1	50pct	50pct	2000	26116	28121	25855	57	28415	294	0	0	4
6.1.1	win	2020-04-22	16:07:05	1	1	1	USRTblock	1	USRT	7	600000	#ff0000	10pct	1	50pct	50pct	4000	28419	32438	28121	57	32691	253	0	0	5
6.1.1	win	2020-04-22	16:07:05	1	1	1	USRTblock	1	USRT	8	600000	#ff0000	10pct	1	50pct	50pct	6000	32695	38704	32438	57	38958	254	0	0	6
6.1.1	win	2020-04-22	16:07:05	1	1	1	USRTblock	1	USRT	9	600000	#ff0000	10pct	1	50pct	50pct	7000	38962	45970	38704	57	46271	301	0	0	7
6.1.1	win	2020-04-22	16:07:05	1	1	1	USRTblock	1	USRT	10	600000	#ff0000	10pct	1	50pct	50pct	2000	46275	48286	45970	57	48632	346	0	0	8
6.1.1	win	2020-04-22	16:07:05	1	1	1	USRTblock	1	USRT	11	600000	#ff0000	10pct	1	50pct	50pct	8000	48637	56652	48286	57	56999	347	0	0	9
6.1.1	win	2020-04-22	16:07:05	1	1	1	USRTblock	1	USRT	12	600000	#ff0000	10pct	1	50pct	50pct	8000	57002	65018	56652	57	65327	309	0	0	10
6.1.1	win	2020-04-22	16:07:05	1	1	1	USRTblock	1	USRT	13	600000	#ff0000	10pct	1	50pct	50pct	6000	65330	71351	65018	57	71695	344	0	0	11
6.1.1	win	2020-04-22	16:07:05	1	1	1	USRTblock	1	USRT	14	600000	#ff0000	10pct	1	50pct	50pct	4000	71699	75717	71351	57	76060	343	0	0	12
6.1.1	win	2020-04-22	16:07:05	1	1	1	USRTblock	1	USRT	15	600000	#ff0000	10pct	1	50pct	50pct	4000	76063	80083	75717	57	80402	319	0	0	13
6.1.1	win	2020-04-22	16:07:05	1	1	1	USRTblock	1	USRT	16	600000	#ff0000	10pct	1	50pct	50pct	3000	80406	83415	80083	57	83737	322	0	0	14
6.1.1	win	2020-04-22	16:07:05	1	1	1	USRTblock	1	USRT	17	600000	#ff0000	10pct	1	50pct	50pct	6000	83740	89749	83415	57	90061	312	0	0	15
6.1.1	win	2020-04-22	16:07:05	1	1	1	USRTblock	1	USRT	18	600000	#ff0000	10pct	1	50pct	50pct	3000	90064	93081	89749	57	93447	366	0	0	16
6.1.1	win	2020-04-22	16:07:05	1	1	1	USRTblock	1	USRT	19	600000	#ff0000	10pct	1	50pct	50pct	5000	93452	98465	93081	57	98793	328	0	0	17
6.1.1	win	2020-04-22	16:07:05	1	1	1	USRTblock	1	USRT	20	600000	#ff0000	10pct	1	50pct	50pct	6000	98796	104814	98465	57	105127	313	0	0	18
6.1.1	win	2020-04-22	16:07:05	1	1	1	USRTblock	1	USRT	21	600000	#ff0000	10pct	1	50pct	50pct	8000	105130	113146	104814	57	113437	291	0	0	19
6.1.1	win	2020-04-22	16:07:05	1	1	1	USRTblock	1	USRT	22	600000	#ff0000	10pct	1	50pct	50pct	8000	113440	121462	113146	57	121739	277	0	0	20
6.1.1	win	2020-04-22	16:07:05	1	1	1	USRTblock	1	USRT	23	600000	#ff0000	10pct	1	50pct	50pct	6000	121743	127762	121462	57	128083	321	0	0	21
6.1.1	win	2020-04-22	16:07:05	1	1	1	USRTblock	1	USRT	24	600000	#ff0000	10pct	1	50pct	50pct	4000	128086	132094	127762	57	132435	341	0	0	22
6.1.1	win	2020-04-22	16:07:05	1	1	1	USRTblock	1	USRT	25	600000	#ff0000	10pct	1	50pct	50pct	2000	132440	134461	132094	57	134862	401	0	0	23
6.1.1	win	2020-04-22	16:07:05	1	1	1	USRTblock	1	USRT	26	600000	#ff0000	10pct	1	50pct	50pct	2000	134866	136876	134461	57	137259	383	0	0	24
6.1.1	win	2020-04-22	16:07:05	1	1	1	USRTblock	1	USRT	27	600000	#ff0000	10pct	1	50pct	50pct	8000	137262	145277	136876	57	145596	319	0	0	25
6.1.1	win	2020-04-22	16:07:05	1	1	1	USRTblock	1	USRT	28	600000	#ff0000	10pct	1	50pct	50pct	5000	145599	150610	145277	57	150933	323	0	0	26
6.1.1	win	2020-04-22	16:07:05	1	1	1	USRTblock	1	USRT	29	600000	#ff0000	10pct	1	50pct	50pct	8000	150937	158942	150610	57	159210	268	0	0	27
6.1.1	win	2020-04-22	16:07:05	1	1	1	USRTblock	1	USRT	30	600000	#ff0000	10pct	1	50pct	50pct	5000	159214	164225	158942	57	164512	287	0	0	28
6.1.1	win	2020-04-22	16:07:05	1	1	1	USRTblock	1	USRT	31	600000	#ff0000	10pct	1	50pct	50pct	4000	164516	168524	164225	57	168888	364	0	0	29
6.1.1	win	2020-04-22	16:07:05	1	1	1	USRTblock	1	USRT	32	600000	#ff0000	10pct	1	50pct	50pct	8000	168891	176907	168524	57	177354	447	0	0	30
6.1.1	win	2020-04-22	16:07:05	1	1	1	USRTblock	1	USRT	33	600000	#ff0000	10pct	1	50pct	50pct	8000	177357	185373	176907	57	185624	251	0	0	31
6.1.1	win	2020-04-22	16:07:05	1	1	1	USRTblock	1	USRT	34	600000	#ff0000	10pct	1	50pct	50pct	3000	185627	188639	185373	57	189714	1075	0	0	32
6.1.1	win	2020-04-22	16:07:05	1	1	1	USRTblock	1	USRT	35	600000	#ff0000	10pct	1	50pct	50pct	8000	189718	197738	188639	57	198004	266	0	0	33
6.1.1	win	2020-04-22	16:07:05	1	1	1	USRTblock	1	USRT	36	600000	#ff0000	10pct	1	50pct	50pct	8000	198007	206021	197738	57	206266	245	0	0	34
6.1.1	win	2020-04-22	16:07:05	1	1	1	USRTblock	1	USRT	37	600000	#ff0000	10pct	1	50pct	50pct	7000	206270	213286	206021	57	213578	292	0	0	35
6.1.1	win	2020-04-22	16:07:05	1	1	1	USRTblock	1	USRT	38	600000	#ff0000	10pct	1	50pct	50pct	5000	213582	218602	213286	57	218941	339	0	0	36
6.1.1	win	2020-04-22	16:07:05	1	1	1	USRTblock	1	USRT	39	600000	#ff0000	10pct	1	50pct	50pct	6000	218945	224952	218602	57	225212	260	0	0	37
6.1.1	win	2020-04-22	16:07:05	1	1	1	USRTblock	1	USRT	40	600000	#ff0000	10pct	1	50pct	50pct	6000	225216	231235	224952	57	231544	309	0	0	38
6.1.1	win	2020-04-22	16:07:05	1	1	1	USRTblock	1	USRT	41	600000	#ff0000	10pct	1	50pct	50pct	7000	231547	-1	231235	57	234817	0	1	1	39
6.1.1	win	2020-04-22	16:07:05	1	1	1	USRTblock	1	USRT	42	600000	#ff0000	10pct	1	50pct	50pct	8000	234820	242834	-1	57	243152	318	0	1	40
6.1.1	win	2020-04-22	16:07:05	1	1	1	USRTblock	1	USRT	43	600000	#ff0000	10pct	1	50pct	50pct	3000	243155	246166	242834	57	246516	350	0	1	41
6.1.1	win	2020-04-22	16:07:05	1	1	1	USRTblock	1	USRT	44	600000	#ff0000	10pct	1	50pct	50pct	2000	246519	248532	246166	57	248999	467	0	1	42
6.1.1	win	2020-04-22	16:07:05	1	1	1	USRTblock	1	USRT	45	600000	#ff0000	10pct	1	50pct	50pct	2000	249002	251015	248532	57	251328	313	0	1	43
6.1.1	win	2020-04-22	16:07:05	1	1	1	USRTblock	1	USRT	46	600000	#ff0000	10pct	1	50pct	50pct	8000	251332	259349	251015	57	259621	272	0	1	44
6.1.1	win	2020-04-22	16:07:05	1	1	1	USRTblock	1	USRT	47	600000	#ff0000	10pct	1	50pct	50pct	6000	259625	265631	259349	57	265923	292	0	1	45
6.1.1	win	2020-04-22	16:07:05	1	1	1	USRTblock	1	USRT	48	600000	#ff0000	10pct	1	50pct	50pct	2000	265926	267947	265631	57	268347	400	0	1	46
6.1.1	win	2020-04-22	16:07:05	1	1	1	USRTblock	1	USRT	49	600000	#ff0000	10pct	1	50pct	50pct	3000	268350	271364	267947	57	271776	412	0	1	47
6.1.1	win	2020-04-22	16:07:05	1	1	1	USRTblock	1	USRT	50	600000	#ff0000	10pct	1	50pct	50pct	4000	271780	275796	271364	57	276107	311	0	1	48
6.1.1	win	2020-04-22	16:07:05	1	1	1	USRTblock	1	USRT	51	600000	#ff0000	10pct	1	50pct	50pct	2000	276111	278130	275796	57	278570	440	0	1	49
6.1.1	win	2020-04-22	16:07:05	1	1	1	USRTblock	1	USRT	52	600000	#ff0000	10pct	1	50pct	50pct	8000	278574	286579	278130	57	286860	281	0	1	50
6.1.1	win	2020-04-22	16:07:05	1	1	1	USRTblock	1	USRT	53	600000	#ff0000	10pct	1	50pct	50pct	4000	286863	290878	286579	57	291206	328	0	1	51
6.1.1	win	2020-04-22	16:07:05	1	1	1	USRTblock	1	USRT	54	600000	#ff0000	10pct	1	50pct	50pct	2000	291210	293228	290878	57	293608	380	0	1	52
6.1.1	win	2020-04-22	16:07:05	1	1	1	USRTblock	1	USRT	55	600000	#ff0000	10pct	1	50pct	50pct	5000	293611	298627	293228	57	298930	303	0	1	53
6.1.1	win	2020-04-22	16:07:05	1	1	1	USRTblock	1	USRT	56	600000	#ff0000	10pct	1	50pct	50pct	4000	298933	302944	298627	57	303205	261	0	1	54
6.1.1	win	2020-04-22	16:07:05	1	1	1	USRTblock	1	USRT	57	600000	#ff0000	10pct	1	50pct	50pct	5000	303209	308227	302944	57	308580	353	0	1	55
6.1.1	win	2020-04-22	16:07:05	1	1	1	USRTblock	1	USRT	58	600000	#ff0000	10pct	1	50pct	50pct	8000	308584	316593	308227	57	316898	305	0	1	56
6.1.1	win	2020-04-22	16:07:05	1	1	1	USRTblock	1	USRT	59	600000	#ff0000	10pct	1	50pct	50pct	2000	316901	318909	316593	57	319254	345	0	1	57
6.1.1	win	2020-04-22	16:07:05	1	1	1	USRTblock	1	USRT	60	600000	#ff0000	10pct	1	50pct	50pct	6000	319258	325276	318909	57	325584	308	0	1	58
6.1.1	win	2020-04-22	16:07:05	1	1	1	USRTblock	1	USRT	61	600000	#ff0000	10pct	1	50pct	50pct	2000	325588	327608	325276	57	327957	349	0	1	59
6.1.1	win	2020-04-22	16:07:05	1	1	1	USRTblock	1	USRT	62	600000	#ff0000	10pct	1	50pct	50pct	8000	327961	335975	327608	57	336290	315	0	1	60
6.1.1	win	2020-04-22	16:07:05	1	1	1	USRTblock	1	USRT	63	600000	#ff0000	10pct	1	50pct	50pct	6000	336295	342307	335975	57	342615	308	0	1	61
6.1.1	win	2020-04-22	16:07:05	1	1	1	USRTblock	1	USRT	64	600000	#ff0000	10pct	1	50pct	50pct	3000	342619	345640	342307	57	346020	380	0	1	62
6.1.1	win	2020-04-22	16:07:05	1	1	1	USRTblock	1	USRT	65	600000	#ff0000	10pct	1	50pct	50pct	4000	346023	350039	345640	57	350307	268	0	1	63
6.1.1	win	2020-04-22	16:07:05	1	1	1	USRTblock	1	USRT	66	600000	#ff0000	10pct	1	50pct	50pct	7000	350310	357322	350039	57	357621	299	0	1	64
6.1.1	win	2020-04-22	16:07:05	1	1	1	USRTblock	1	USRT	67	600000	#ff0000	10pct	1	50pct	50pct	8000	357626	365638	357322	57	365917	279	0	1	65
6.1.1	win	2020-04-22	16:07:05	1	1	1	USRTblock	1	USRT	68	600000	#ff0000	10pct	1	50pct	50pct	7000	365920	372937	365638	57	373206	269	0	1	66
6.1.1	win	2020-04-22	16:07:05	1	1	1	USRTblock	1	USRT	69	600000	#ff0000	10pct	1	50pct	50pct	3000	373209	376219	372937	57	376618	399	0	1	67
6.1.1	win	2020-04-22	16:07:05	1	1	1	USRTblock	1	USRT	70	600000	#ff0000	10pct	1	50pct	50pct	5000	376621	381636	376219	57	381920	284	0	1	68
6.1.1	win	2020-04-22	16:07:05	1	1	1	USRTblock	1	USRT	71	600000	#ff0000	10pct	1	50pct	50pct	8000	381924	389936	381636	57	390237	301	0	1	69
6.1.1	win	2020-04-22	16:07:05	1	1	1	USRTblock	1	USRT	72	600000	#ff0000	10pct	1	50pct	50pct	4000	390241	394251	389936	57	394575	324	0	1	70
6.1.1	win	2020-04-22	16:07:05	1	1	1	USRTblock	1	USRT	73	600000	#ff0000	10pct	1	50pct	50pct	8000	394579	402584	394251	57	403004	420	0	1	71
6.1.1	win	2020-04-22	16:07:05	1	1	1	USRTblock	1	USRT	74	600000	#ff0000	10pct	1	50pct	50pct	4000	403007	407017	402584	57	407345	328	0	1	72
6.1.1	win	2020-04-22	16:07:05	1	1	1	USRTblock	1	USRT	75	600000	#ff0000	10pct	1	50pct	50pct	6000	407349	413367	407017	57	413682	315	0	1	73
6.1.1	win	2020-04-22	16:07:05	1	1	1	USRTblock	1	USRT	76	600000	#ff0000	10pct	1	50pct	50pct	6000	413685	419699	413367	57	420019	320	0	1	74
6.1.1	win	2020-04-22	16:07:05	1	1	1	USRTblock	1	USRT	77	600000	#ff0000	10pct	1	50pct	50pct	7000	420023	427032	419699	57	427352	320	0	1	75
6.1.1	win	2020-04-22	16:07:05	1	1	1	USRTblock	1	USRT	78	600000	#ff0000	10pct	1	50pct	50pct	5000	427356	432364	427032	57	432678	314	0	1	76
6.1.1	win	2020-04-22	16:07:05	1	1	1	USRTblock	1	USRT	79	600000	#ff0000	10pct	1	50pct	50pct	4000	432681	436697	432364	57	436976	279	0	1	77
6.1.1	win	2020-04-22	16:07:05	1	1	1	USRTblock	1	USRT	80	600000	#ff0000	10pct	1	50pct	50pct	5000	436979	441996	436697	57	442290	294	0	1	78
6.1.1	win	2020-04-22	16:07:05	1	1	1	USRTblock	1	USRT	81	600000	#ff0000	10pct	1	50pct	50pct	5000	442293	447313	441996	57	447606	293	0	1	79
6.1.1	win	2020-04-22	16:07:05	1	1	1	USRTblock	1	USRT	82	600000	#ff0000	10pct	1	50pct	50pct	7000	447609	454629	447313	57	454878	249	0	1	80
6.1.1	win	2020-04-22	16:07:05	1	1	1	USRTblock	1	USRT	83	600000	#ff0000	10pct	1	50pct	50pct	7000	454881	461895	454629	57	462137	242	0	1	81
6.1.1	win	2020-04-22	16:07:05	1	1	1	USRTblock	1	USRT	84	600000	#ff0000	10pct	1	50pct	50pct	7000	462172	469177	461895	57	469439	262	0	1	82
6.1.1	win	2020-04-22	16:07:05	1	1	1	USRTblock	1	USRT	85	600000	#ff0000	10pct	1	50pct	50pct	7000	469443	476460	469177	57	476717	257	0	1	83
6.1.1	win	2020-04-22	16:07:05	1	1	1	USRTblock	1	USRT	86	600000	#ff0000	10pct	1	50pct	50pct	5000	476720	481726	476460	57	482068	342	0	1	84
6.1.1	win	2020-04-22	16:07:05	1	1	1	USRTblock	1	USRT	87	600000	#ff0000	10pct	1	50pct	50pct	6000	482071	488092	481726	57	488384	292	0	1	85
6.1.1	win	2020-04-22	16:07:05	1	1	1	USRTblock	1	USRT	88	600000	#ff0000	10pct	1	50pct	50pct	4000	488387	492408	488092	57	492762	354	0	1	86
6.1.1	win	2020-04-22	16:07:05	1	1	1	USRTblock	1	USRT	89	600000	#ff0000	10pct	1	50pct	50pct	8000	492766	500775	492408	57	501045	270	0	1	87
6.1.1	win	2020-04-22	16:07:05	1	1	1	USRTblock	1	USRT	90	600000	#ff0000	10pct	1	50pct	50pct	3000	501049	504057	500775	57	504337	280	0	1	88
6.1.1	win	2020-04-22	16:07:05	1	1	1	USRTblock	1	USRT	91	600000	#ff0000	10pct	1	50pct	50pct	7000	504341	511357	504057	57	511629	272	0	1	89
6.1.1	win	2020-04-22	16:07:05	1	1	1	USRTblock	1	USRT	92	600000	#ff0000	10pct	1	50pct	50pct	6000	511632	517639	511357	57	517962	323	0	1	90
6.1.1	win	2020-04-22	16:07:05	1	1	1	USRTblock	1	USRT	93	600000	#ff0000	10pct	1	50pct	50pct	7000	517966	524973	517639	57	525198	225	0	1	91
6.1.1	win	2020-04-22	16:07:05	1	1	1	USRTblock	1	USRT	94	600000	#ff0000	10pct	1	50pct	50pct	7000	525201	532222	524973	57	532505	283	0	1	92
6.1.1	win	2020-04-22	16:07:05	1	1	1	USRTblock	1	USRT	95	600000	#ff0000	10pct	1	50pct	50pct	8000	532509	540521	532222	57	540827	306	0	1	93
6.1.1	win	2020-04-22	16:07:05	1	1	1	USRTblock	1	USRT	96	600000	#ff0000	10pct	1	50pct	50pct	3000	540830	543836	540521	57	544197	361	0	1	94
6.1.1	win	2020-04-22	16:07:05	1	1	1	USRTblock	1	USRT	97	600000	#ff0000	10pct	1	50pct	50pct	7000	544201	551220	543836	57	551509	289	0	1	95
6.1.1	win	2020-04-22	16:07:05	1	1	1	USRTblock	1	USRT	98	600000	#ff0000	10pct	1	50pct	50pct	3000	551512	554519	551220	57	554893	374	0	1	96
6.1.1	win	2020-04-22	16:07:05	1	1	1	USRTblock	1	USRT	99	600000	#ff0000	10pct	1	50pct	50pct	5000	554896	559901	554519	57	560223	322	0	1	97
6.1.1	win	2020-04-22	16:07:05	1	1	1	USRTblock	1	USRT	100	600000	#ff0000	10pct	1	50pct	50pct	5000	560227	565234	559901	57	565534	300	0	1	98
6.1.1	win	2020-04-22	16:07:05	1	1	1	USRTblock	1	USRT	101	600000	#ff0000	10pct	1	50pct	50pct	3000	565538	568550	565234	57	568992	442	0	1	99
6.1.1	win	2020-04-22	16:07:05	1	1	1	USRTblock	1	USRT	102	600000	#ff0000	10pct	1	50pct	50pct	5000	568995	574000	568550	57	574311	311	0	1	100
6.1.1	win	2020-04-22	16:07:05	1	1	1	USRTblock	1	USRT	103	600000	#ff0000	10pct	1	50pct	50pct	3000	574314	577333	574000	57	577640	307	0	1	101
6.1.1	win	2020-04-22	16:07:05	1	1	1	USRTblock	1	USRT	104	600000	#ff0000	10pct	1	50pct	50pct	3000	577643	580649	577333	57	580961	312	0	1	102
6.1.1	win	2020-04-22	16:07:05	1	1	1	USRTblock	1	USRT	105	600000	#ff0000	10pct	1	50pct	50pct	4000	580965	584982	580649	57	585249	267	0	1	103
6.1.1	win	2020-04-22	16:07:05	1	1	1	USRTblock	1	USRT	106	600000	#ff0000	10pct	1	50pct	50pct	7000	585252	592265	584982	57	592535	270	0	1	104
6.1.1	win	2020-04-22	16:07:05	1	1	1	USRTblock	1	USRT	107	600000	#ff0000	10pct	1	50pct	50pct	8000	592539	600548	592265	57	600945	397	0	1	105
6.1.1	win	2020-04-22	16:07:05	1	1	1	USRTblock	1	USRT	108	600000	#ff0000	10pct	1	50pct	50pct	6000	600949	606964	600548	57	607320	356	0	1	106
6.1.1	win	2020-04-22	16:07:05	1	1	1	USRTblock	1	USRT	109	600000	#ff0000	10pct	1	50pct	50pct	5000	607324	-1	606964	0	607460	0	1	2	107
