build	computer.platform	date	time	subject	group	sessionid	blockcode	blocknum	trialcode	trialnum	testduration	targetcolor	targetsize	fixed	targetx	targety	stiminterval	trialStart	shape.targetcircle.timestamp	lastCircleTimestamp	response	rt_elapsed	rt	EarlyResponse	countEarlyResponses	countResponses
6.1.1	win	2020-04-03	23:01:23	1	1	1	USRTblock	1	USRT	3	600000	#ff0000	10pct	1	50pct	50pct	5000	2743	7757	2021	57	8021	264	0	0	1
6.1.1	win	2020-04-03	23:01:23	1	1	1	USRTblock	1	USRT	4	600000	#ff0000	10pct	1	50pct	50pct	2000	8040	10056	7757	57	10308	252	0	0	2
6.1.1	win	2020-04-03	23:01:23	1	1	1	USRTblock	1	USRT	5	600000	#ff0000	10pct	1	50pct	50pct	3000	10311	-1	10056	57	13287	0	1	1	3
6.1.1	win	2020-04-03	23:01:23	1	1	1	USRTblock	1	USRT	6	600000	#ff0000	10pct	1	50pct	50pct	6000	13291	19306	-1	57	19551	245	0	1	4
6.1.1	win	2020-04-03	23:01:23	1	1	1	USRTblock	1	USRT	7	600000	#ff0000	10pct	1	50pct	50pct	3000	19554	22572	19306	57	22877	305	0	1	5
6.1.1	win	2020-04-03	23:01:23	1	1	1	USRTblock	1	USRT	8	600000	#ff0000	10pct	1	50pct	50pct	2000	22881	24888	22572	57	25175	287	0	1	6
6.1.1	win	2020-04-03	23:01:23	1	1	1	USRTblock	1	USRT	9	600000	#ff0000	10pct	1	50pct	50pct	6000	25178	31188	24888	57	31604	416	0	1	7
6.1.1	win	2020-04-03	23:01:23	1	1	1	USRTblock	1	USRT	10	600000	#ff0000	10pct	1	50pct	50pct	2000	31608	33621	31188	57	33998	377	0	1	8
6.1.1	win	2020-04-03	23:01:23	1	1	1	USRTblock	1	USRT	11	600000	#ff0000	10pct	1	50pct	50pct	3000	34002	37021	33621	57	37426	405	0	1	9
6.1.1	win	2020-04-03	23:01:23	1	1	1	USRTblock	1	USRT	12	600000	#ff0000	10pct	1	50pct	50pct	5000	37430	42437	37021	57	42817	380	0	1	10
6.1.1	win	2020-04-03	23:01:23	1	1	1	USRTblock	1	USRT	13	600000	#ff0000	10pct	1	50pct	50pct	2000	42820	44836	42437	57	45108	272	0	1	11
6.1.1	win	2020-04-03	23:01:23	1	1	1	USRTblock	1	USRT	14	600000	#ff0000	10pct	1	50pct	50pct	6000	45111	51119	44836	57	51391	272	0	1	12
6.1.1	win	2020-04-03	23:01:23	1	1	1	USRTblock	1	USRT	15	600000	#ff0000	10pct	1	50pct	50pct	3000	51394	54402	51119	57	54897	495	0	1	13
6.1.1	win	2020-04-03	23:01:23	1	1	1	USRTblock	1	USRT	16	600000	#ff0000	10pct	1	50pct	50pct	2000	54900	56918	54402	57	57221	303	0	1	14
6.1.1	win	2020-04-03	23:01:23	1	1	1	USRTblock	1	USRT	17	600000	#ff0000	10pct	1	50pct	50pct	5000	57225	62237	56918	57	62492	255	0	1	15
6.1.1	win	2020-04-03	23:01:23	1	1	1	USRTblock	1	USRT	18	600000	#ff0000	10pct	1	50pct	50pct	8000	62497	70517	62237	57	70914	397	0	1	16
6.1.1	win	2020-04-03	23:01:23	1	1	1	USRTblock	1	USRT	19	600000	#ff0000	10pct	1	50pct	50pct	2000	70919	72933	70517	57	73410	477	0	1	17
6.1.1	win	2020-04-03	23:01:23	1	1	1	USRTblock	1	USRT	20	600000	#ff0000	10pct	1	50pct	50pct	3000	73413	76433	72933	57	76762	329	0	1	18
6.1.1	win	2020-04-03	23:01:23	1	1	1	USRTblock	1	USRT	21	600000	#ff0000	10pct	1	50pct	50pct	4000	76767	80783	76433	57	81061	278	0	1	19
6.1.1	win	2020-04-03	23:01:23	1	1	1	USRTblock	1	USRT	22	600000	#ff0000	10pct	1	50pct	50pct	3000	81065	84082	80783	57	84356	274	0	1	20
6.1.1	win	2020-04-03	23:01:23	1	1	1	USRTblock	1	USRT	23	600000	#ff0000	10pct	1	50pct	50pct	5000	84360	89365	84082	57	89764	399	0	1	21
6.1.1	win	2020-04-03	23:01:23	1	1	1	USRTblock	1	USRT	24	600000	#ff0000	10pct	1	50pct	50pct	5000	89768	94781	89365	57	95078	297	0	1	22
6.1.1	win	2020-04-03	23:01:23	1	1	1	USRTblock	1	USRT	25	600000	#ff0000	10pct	1	50pct	50pct	2000	95082	97097	94781	57	97460	363	0	1	23
6.1.1	win	2020-04-03	23:01:23	1	1	1	USRTblock	1	USRT	26	600000	#ff0000	10pct	1	50pct	50pct	2000	97463	99481	97097	57	99755	274	0	1	24
6.1.1	win	2020-04-03	23:01:23	1	1	1	USRTblock	1	USRT	27	600000	#ff0000	10pct	1	50pct	50pct	7000	99759	106763	99481	57	107005	242	0	1	25
6.1.1	win	2020-04-03	23:01:23	1	1	1	USRTblock	1	USRT	28	600000	#ff0000	10pct	1	50pct	50pct	6000	107009	113030	106763	57	113269	239	0	1	26
6.1.1	win	2020-04-03	23:01:23	1	1	1	USRTblock	1	USRT	29	600000	#ff0000	10pct	1	50pct	50pct	2000	113273	115279	113030	57	115597	318	0	1	27
6.1.1	win	2020-04-03	23:01:23	1	1	1	USRTblock	1	USRT	30	600000	#ff0000	10pct	1	50pct	50pct	4000	115601	119612	115279	57	119888	276	0	1	28
6.1.1	win	2020-04-03	23:01:23	1	1	1	USRTblock	1	USRT	31	600000	#ff0000	10pct	1	50pct	50pct	6000	119891	125912	119612	57	126167	255	0	1	29
6.1.1	win	2020-04-03	23:01:23	1	1	1	USRTblock	1	USRT	32	600000	#ff0000	10pct	1	50pct	50pct	7000	126173	133194	125912	57	133269	75	0	1	30
6.1.1	win	2020-04-03	23:01:23	1	1	1	USRTblock	1	USRT	33	600000	#ff0000	10pct	1	50pct	50pct	4000	133273	137294	133194	57	137565	271	0	1	31
6.1.1	win	2020-04-03	23:01:23	1	1	1	USRTblock	1	USRT	34	600000	#ff0000	10pct	1	50pct	50pct	7000	137568	144576	137294	57	144846	270	0	1	32
6.1.1	win	2020-04-03	23:01:23	1	1	1	USRTblock	1	USRT	35	600000	#ff0000	10pct	1	50pct	50pct	5000	144850	149859	144576	57	150173	314	0	1	33
6.1.1	win	2020-04-03	23:01:23	1	1	1	USRTblock	1	USRT	36	600000	#ff0000	10pct	1	50pct	50pct	2000	150177	152192	149859	57	152672	480	0	1	34
6.1.1	win	2020-04-03	23:01:23	1	1	1	USRTblock	1	USRT	37	600000	#ff0000	10pct	1	50pct	50pct	5000	152675	157692	152192	57	157965	273	0	1	35
6.1.1	win	2020-04-03	23:01:23	1	1	1	USRTblock	1	USRT	38	600000	#ff0000	10pct	1	50pct	50pct	6000	157968	163975	157692	57	164353	378	0	1	36
6.1.1	win	2020-04-03	23:01:23	1	1	1	USRTblock	1	USRT	39	600000	#ff0000	10pct	1	50pct	50pct	5000	164357	169374	163975	57	169626	252	0	1	37
6.1.1	win	2020-04-03	23:01:23	1	1	1	USRTblock	1	USRT	40	600000	#ff0000	10pct	1	50pct	50pct	4000	169630	-1	169374	57	173308	0	1	2	38
6.1.1	win	2020-04-03	23:01:23	1	1	1	USRTblock	1	USRT	41	600000	#ff0000	10pct	1	50pct	50pct	7000	173312	-1	-1	57	179469	0	1	3	39
6.1.1	win	2020-04-03	23:01:23	1	1	1	USRTblock	1	USRT	42	600000	#ff0000	10pct	1	50pct	50pct	8000	179473	-1	-1	57	186521	0	1	4	40
6.1.1	win	2020-04-03	23:01:23	1	1	1	USRTblock	1	USRT	43	600000	#ff0000	10pct	1	50pct	50pct	2000	186525	188538	-1	57	188971	433	0	4	41
6.1.1	win	2020-04-03	23:01:23	1	1	1	USRTblock	1	USRT	44	600000	#ff0000	10pct	1	50pct	50pct	8000	188975	196989	188538	57	197265	276	0	4	42
6.1.1	win	2020-04-03	23:01:23	1	1	1	USRTblock	1	USRT	45	600000	#ff0000	10pct	1	50pct	50pct	5000	197269	202288	196989	57	202567	279	0	4	43
6.1.1	win	2020-04-03	23:01:23	1	1	1	USRTblock	1	USRT	46	600000	#ff0000	10pct	1	50pct	50pct	6000	202571	208587	202288	57	208870	283	0	4	44
6.1.1	win	2020-04-03	23:01:23	1	1	1	USRTblock	1	USRT	47	600000	#ff0000	10pct	1	50pct	50pct	8000	208873	216886	208587	57	217196	310	0	4	45
6.1.1	win	2020-04-03	23:01:23	1	1	1	USRTblock	1	USRT	48	600000	#ff0000	10pct	1	50pct	50pct	6000	217201	223219	216886	57	223495	276	0	4	46
6.1.1	win	2020-04-03	23:01:23	1	1	1	USRTblock	1	USRT	49	600000	#ff0000	10pct	1	50pct	50pct	5000	223499	228518	223219	57	228883	365	0	4	47
6.1.1	win	2020-04-03	23:01:23	1	1	1	USRTblock	1	USRT	50	600000	#ff0000	10pct	1	50pct	50pct	2000	228887	230901	228518	57	231212	311	0	4	48
6.1.1	win	2020-04-03	23:01:23	1	1	1	USRTblock	1	USRT	51	600000	#ff0000	10pct	1	50pct	50pct	7000	231216	238234	230901	57	238488	254	0	4	49
6.1.1	win	2020-04-03	23:01:23	1	1	1	USRTblock	1	USRT	52	600000	#ff0000	10pct	1	50pct	50pct	8000	238491	246500	238234	57	246865	365	0	4	50
6.1.1	win	2020-04-03	23:01:23	1	1	1	USRTblock	1	USRT	53	600000	#ff0000	10pct	1	50pct	50pct	6000	246870	252882	246500	57	253198	316	0	4	51
6.1.1	win	2020-04-03	23:01:23	1	1	1	USRTblock	1	USRT	54	600000	#ff0000	10pct	1	50pct	50pct	5000	253202	258215	252882	57	258583	368	0	4	52
6.1.1	win	2020-04-03	23:01:23	1	1	1	USRTblock	1	USRT	55	600000	#ff0000	10pct	1	50pct	50pct	2000	258587	260598	258215	57	261008	410	0	4	53
6.1.1	win	2020-04-03	23:01:23	1	1	1	USRTblock	1	USRT	56	600000	#ff0000	10pct	1	50pct	50pct	6000	261012	267031	260598	57	267360	329	0	4	54
6.1.1	win	2020-04-03	23:01:23	1	1	1	USRTblock	1	USRT	57	600000	#ff0000	10pct	1	50pct	50pct	5000	267364	272381	267031	57	272629	248	0	4	55
6.1.1	win	2020-04-03	23:01:23	1	1	1	USRTblock	1	USRT	58	600000	#ff0000	10pct	1	50pct	50pct	6000	272633	278647	272381	57	278906	259	0	4	56
6.1.1	win	2020-04-03	23:01:23	1	1	1	USRTblock	1	USRT	59	600000	#ff0000	10pct	1	50pct	50pct	6000	278910	284929	278647	57	285226	297	0	4	57
6.1.1	win	2020-04-03	23:01:23	1	1	1	USRTblock	1	USRT	60	600000	#ff0000	10pct	1	50pct	50pct	8000	285230	293245	284929	57	293497	252	0	4	58
6.1.1	win	2020-04-03	23:01:23	1	1	1	USRTblock	1	USRT	61	600000	#ff0000	10pct	1	50pct	50pct	8000	293501	301511	293245	57	301758	247	0	4	59
6.1.1	win	2020-04-03	23:01:23	1	1	1	USRTblock	1	USRT	62	600000	#ff0000	10pct	1	50pct	50pct	4000	301762	305777	301511	57	306030	253	0	4	60
6.1.1	win	2020-04-03	23:01:23	1	1	1	USRTblock	1	USRT	63	600000	#ff0000	10pct	1	50pct	50pct	3000	306034	309043	305777	57	309335	292	0	4	61
6.1.1	win	2020-04-03	23:01:23	1	1	1	USRTblock	1	USRT	64	600000	#ff0000	10pct	1	50pct	50pct	4000	309339	313360	309043	57	313655	295	0	4	62
6.1.1	win	2020-04-03	23:01:23	1	1	1	USRTblock	1	USRT	65	600000	#ff0000	10pct	1	50pct	50pct	6000	313659	-1	313360	57	318560	0	1	5	63
6.1.1	win	2020-04-03	23:01:23	1	1	1	USRTblock	1	USRT	66	600000	#ff0000	10pct	1	50pct	50pct	4000	318564	322576	-1	57	322872	296	0	5	64
6.1.1	win	2020-04-03	23:01:23	1	1	1	USRTblock	1	USRT	67	600000	#ff0000	10pct	1	50pct	50pct	2000	322876	324891	322576	57	325208	317	0	5	65
6.1.1	win	2020-04-03	23:01:23	1	1	1	USRTblock	1	USRT	68	600000	#ff0000	10pct	1	50pct	50pct	8000	325213	333224	324891	57	333531	307	0	5	66
6.1.1	win	2020-04-03	23:01:23	1	1	1	USRTblock	1	USRT	69	600000	#ff0000	10pct	1	50pct	50pct	7000	333534	340540	333224	57	340886	346	0	5	67
6.1.1	win	2020-04-03	23:01:23	1	1	1	USRTblock	1	USRT	70	600000	#ff0000	10pct	1	50pct	50pct	2000	340890	342906	340540	57	343360	454	0	5	68
6.1.1	win	2020-04-03	23:01:23	1	1	1	USRTblock	1	USRT	71	600000	#ff0000	10pct	1	50pct	50pct	2000	343363	345374	342906	57	345760	386	0	5	69
6.1.1	win	2020-04-03	23:01:23	1	1	1	USRTblock	1	USRT	72	600000	#ff0000	10pct	1	50pct	50pct	5000	345764	350772	345374	57	351087	315	0	5	70
6.1.1	win	2020-04-03	23:01:23	1	1	1	USRTblock	1	USRT	73	600000	#ff0000	10pct	1	50pct	50pct	3000	351092	354105	350772	57	354446	341	0	5	71
6.1.1	win	2020-04-03	23:01:23	1	1	1	USRTblock	1	USRT	74	600000	#ff0000	10pct	1	50pct	50pct	7000	354450	361471	354105	57	361790	319	0	5	72
6.1.1	win	2020-04-03	23:01:23	1	1	1	USRTblock	1	USRT	75	600000	#ff0000	10pct	1	50pct	50pct	3000	361794	364804	361471	57	365144	340	0	5	73
6.1.1	win	2020-04-03	23:01:23	1	1	1	USRTblock	1	USRT	76	600000	#ff0000	10pct	1	50pct	50pct	4000	365149	369171	364804	57	369441	270	0	5	74
6.1.1	win	2020-04-03	23:01:23	1	1	1	USRTblock	1	USRT	77	600000	#ff0000	10pct	1	50pct	50pct	4000	369445	373453	369171	57	373734	281	0	5	75
6.1.1	win	2020-04-03	23:01:23	1	1	1	USRTblock	1	USRT	78	600000	#ff0000	10pct	1	50pct	50pct	8000	373737	381753	373453	57	382023	270	0	5	76
6.1.1	win	2020-04-03	23:01:23	1	1	1	USRTblock	1	USRT	79	600000	#ff0000	10pct	1	50pct	50pct	4000	382027	386035	381753	57	386358	323	0	5	77
6.1.1	win	2020-04-03	23:01:23	1	1	1	USRTblock	1	USRT	80	600000	#ff0000	10pct	1	50pct	50pct	4000	386362	390368	386035	57	390631	263	0	5	78
6.1.1	win	2020-04-03	23:01:23	1	1	1	USRTblock	1	USRT	81	600000	#ff0000	10pct	1	50pct	50pct	4000	390634	394652	390368	57	394931	279	0	5	79
6.1.1	win	2020-04-03	23:01:23	1	1	1	USRTblock	1	USRT	82	600000	#ff0000	10pct	1	50pct	50pct	3000	394935	397951	394652	57	398291	340	0	5	80
6.1.1	win	2020-04-03	23:01:23	1	1	1	USRTblock	1	USRT	83	600000	#ff0000	10pct	1	50pct	50pct	2000	398295	400317	397951	57	400650	333	0	5	81
6.1.1	win	2020-04-03	23:01:23	1	1	1	USRTblock	1	USRT	84	600000	#ff0000	10pct	1	50pct	50pct	7000	400653	407667	400317	57	407967	300	0	5	82
6.1.1	win	2020-04-03	23:01:23	1	1	1	USRTblock	1	USRT	85	600000	#ff0000	10pct	1	50pct	50pct	6000	407971	413983	407667	57	414226	243	0	5	83
6.1.1	win	2020-04-03	23:01:23	1	1	1	USRTblock	1	USRT	86	600000	#ff0000	10pct	1	50pct	50pct	8000	414230	422248	413983	57	422547	299	0	5	84
6.1.1	win	2020-04-03	23:01:23	1	1	1	USRTblock	1	USRT	87	600000	#ff0000	10pct	1	50pct	50pct	8000	422550	430565	422248	57	430832	267	0	5	85
6.1.1	win	2020-04-03	23:01:23	1	1	1	USRTblock	1	USRT	88	600000	#ff0000	10pct	1	50pct	50pct	7000	430840	437847	430565	57	438156	309	0	5	86
6.1.1	win	2020-04-03	23:01:23	1	1	1	USRTblock	1	USRT	89	600000	#ff0000	10pct	1	50pct	50pct	3000	438159	441188	437847	57	441598	410	0	5	87
6.1.1	win	2020-04-03	23:01:23	1	1	1	USRTblock	1	USRT	90	600000	#ff0000	10pct	1	50pct	50pct	7000	441602	448613	441188	57	448951	338	0	5	88
6.1.1	win	2020-04-03	23:01:23	1	1	1	USRTblock	1	USRT	91	600000	#ff0000	10pct	1	50pct	50pct	6000	448955	454962	448613	57	455395	433	0	5	89
6.1.1	win	2020-04-03	23:01:23	1	1	1	USRTblock	1	USRT	92	600000	#ff0000	10pct	1	50pct	50pct	5000	455400	460412	454962	57	460719	307	0	5	90
6.1.1	win	2020-04-03	23:01:23	1	1	1	USRTblock	1	USRT	93	600000	#ff0000	10pct	1	50pct	50pct	6000	460723	466744	460412	57	467063	319	0	5	91
6.1.1	win	2020-04-03	23:01:23	1	1	1	USRTblock	1	USRT	94	600000	#ff0000	10pct	1	50pct	50pct	2000	467067	469077	466744	57	469430	353	0	5	92
6.1.1	win	2020-04-03	23:01:23	1	1	1	USRTblock	1	USRT	95	600000	#ff0000	10pct	1	50pct	50pct	3000	469433	472443	469077	57	472713	270	0	5	93
6.1.1	win	2020-04-03	23:01:23	1	1	1	USRTblock	1	USRT	96	600000	#ff0000	10pct	1	50pct	50pct	7000	472717	479726	472443	57	480479	753	0	5	94
6.1.1	win	2020-04-03	23:01:23	1	1	1	USRTblock	1	USRT	97	600000	#ff0000	10pct	1	50pct	50pct	7000	480483	487492	479726	57	487782	290	0	5	95
6.1.1	win	2020-04-03	23:01:23	1	1	1	USRTblock	1	USRT	98	600000	#ff0000	10pct	1	50pct	50pct	8000	487786	495791	487492	57	496103	312	0	5	96
6.1.1	win	2020-04-03	23:01:23	1	1	1	USRTblock	1	USRT	99	600000	#ff0000	10pct	1	50pct	50pct	7000	496107	503124	495791	57	503416	292	0	5	97
6.1.1	win	2020-04-03	23:01:23	1	1	1	USRTblock	1	USRT	100	600000	#ff0000	10pct	1	50pct	50pct	8000	503420	511440	503124	57	511737	297	0	5	98
6.1.1	win	2020-04-03	23:01:23	1	1	1	USRTblock	1	USRT	101	600000	#ff0000	10pct	1	50pct	50pct	2000	511741	513756	511440	57	514246	490	0	5	99
6.1.1	win	2020-04-03	23:01:23	1	1	1	USRTblock	1	USRT	102	600000	#ff0000	10pct	1	50pct	50pct	8000	514251	522272	513756	57	522576	304	0	5	100
6.1.1	win	2020-04-03	23:01:23	1	1	1	USRTblock	1	USRT	103	600000	#ff0000	10pct	1	50pct	50pct	4000	522580	526588	522272	57	526935	347	0	5	101
6.1.1	win	2020-04-03	23:01:23	1	1	1	USRTblock	1	USRT	104	600000	#ff0000	10pct	1	50pct	50pct	5000	526939	531954	526588	57	532278	324	0	5	102
6.1.1	win	2020-04-03	23:01:23	1	1	1	USRTblock	1	USRT	105	600000	#ff0000	10pct	1	50pct	50pct	3000	532282	535287	531954	57	535609	322	0	5	103
6.1.1	win	2020-04-03	23:01:23	1	1	1	USRTblock	1	USRT	106	600000	#ff0000	10pct	1	50pct	50pct	8000	535614	543620	535287	57	543929	309	0	5	104
6.1.1	win	2020-04-03	23:01:23	1	1	1	USRTblock	1	USRT	107	600000	#ff0000	10pct	1	50pct	50pct	6000	543932	549953	543620	57	550238	285	0	5	105
6.1.1	win	2020-04-03	23:01:23	1	1	1	USRTblock	1	USRT	108	600000	#ff0000	10pct	1	50pct	50pct	7000	550242	557252	549953	57	557511	259	0	5	106
6.1.1	win	2020-04-03	23:01:23	1	1	1	USRTblock	1	USRT	109	600000	#ff0000	10pct	1	50pct	50pct	5000	557515	562534	557252	57	562910	376	0	5	107
6.1.1	win	2020-04-03	23:01:23	1	1	1	USRTblock	1	USRT	110	600000	#ff0000	10pct	1	50pct	50pct	6000	562914	568934	562534	57	569310	376	0	5	108
6.1.1	win	2020-04-03	23:01:23	1	1	1	USRTblock	1	USRT	111	600000	#ff0000	10pct	1	50pct	50pct	6000	569314	575333	568934	57	575658	325	0	5	109
6.1.1	win	2020-04-03	23:01:23	1	1	1	USRTblock	1	USRT	112	600000	#ff0000	10pct	1	50pct	50pct	8000	575662	583683	575333	57	583947	264	0	5	110
6.1.1	win	2020-04-03	23:01:23	1	1	1	USRTblock	1	USRT	113	600000	#ff0000	10pct	1	50pct	50pct	4000	583950	587966	583683	57	588404	438	0	5	111
6.1.1	win	2020-04-03	23:01:23	1	1	1	USRTblock	1	USRT	114	600000	#ff0000	10pct	1	50pct	50pct	5000	588408	593415	587966	57	593712	297	0	5	112
6.1.1	win	2020-04-03	23:01:23	1	1	1	USRTblock	1	USRT	115	600000	#ff0000	10pct	1	50pct	50pct	7000	593715	600731	593415	57	601009	278	0	5	113
6.1.1	win	2020-04-03	23:01:23	1	1	1	USRTblock	1	USRT	116	600000	#ff0000	10pct	1	50pct	50pct	4000	601013	-1	600731	0	601126	0	1	6	114
