build	computer.platform	date	time	subject	group	sessionid	blockcode	blocknum	trialcode	trialnum	testduration	targetcolor	targetsize	fixed	targetx	targety	stiminterval	trialStart	shape.targetcircle.timestamp	lastCircleTimestamp	response	rt_elapsed	rt	EarlyResponse	countEarlyResponses	countResponses
6.1.1	win	2020-04-22	13:03:59	1	1	1	USRTblock	1	USRT	3	600000	#ff0000	10pct	1	50pct	50pct	8000	2694	10703	1964	57	10995	292	0	0	1
6.1.1	win	2020-04-22	13:03:59	1	1	1	USRTblock	1	USRT	4	600000	#ff0000	10pct	1	50pct	50pct	2000	11012	13017	10703	57	13425	408	0	0	2
6.1.1	win	2020-04-22	13:03:59	1	1	1	USRTblock	1	USRT	5	600000	#ff0000	10pct	1	50pct	50pct	4000	13430	17451	13017	57	17715	264	0	0	3
6.1.1	win	2020-04-22	13:03:59	1	1	1	USRTblock	1	USRT	6	600000	#ff0000	10pct	1	50pct	50pct	4000	17719	21733	17451	57	22099	366	0	0	4
6.1.1	win	2020-04-22	13:03:59	1	1	1	USRTblock	1	USRT	7	600000	#ff0000	10pct	1	50pct	50pct	6000	22103	28116	21733	57	28407	291	0	0	5
6.1.1	win	2020-04-22	13:03:59	1	1	1	USRTblock	1	USRT	8	600000	#ff0000	10pct	1	50pct	50pct	4000	28411	32432	28116	57	32762	330	0	0	6
6.1.1	win	2020-04-22	13:03:59	1	1	1	USRTblock	1	USRT	9	600000	#ff0000	10pct	1	50pct	50pct	8000	32766	40782	32432	57	41103	321	0	0	7
6.1.1	win	2020-04-22	13:03:59	1	1	1	USRTblock	1	USRT	10	600000	#ff0000	10pct	1	50pct	50pct	3000	41108	44114	40782	57	44491	377	0	0	8
6.1.1	win	2020-04-22	13:03:59	1	1	1	USRTblock	1	USRT	11	600000	#ff0000	10pct	1	50pct	50pct	4000	44495	48515	44114	57	48872	357	0	0	9
6.1.1	win	2020-04-22	13:03:59	1	1	1	USRTblock	1	USRT	12	600000	#ff0000	10pct	1	50pct	50pct	5000	48877	53897	48515	57	54188	291	0	0	10
6.1.1	win	2020-04-22	13:03:59	1	1	1	USRTblock	1	USRT	13	600000	#ff0000	10pct	1	50pct	50pct	4000	54192	58213	53897	57	58568	355	0	0	11
6.1.1	win	2020-04-22	13:03:59	1	1	1	USRTblock	1	USRT	14	600000	#ff0000	10pct	1	50pct	50pct	6000	58572	64579	58213	57	64969	390	0	0	12
6.1.1	win	2020-04-22	13:03:59	1	1	1	USRTblock	1	USRT	15	600000	#ff0000	10pct	1	50pct	50pct	6000	64974	70995	64579	57	71242	247	0	0	13
6.1.1	win	2020-04-22	13:03:59	1	1	1	USRTblock	1	USRT	16	600000	#ff0000	10pct	1	50pct	50pct	3000	71246	74262	70995	57	74595	333	0	0	14
6.1.1	win	2020-04-22	13:03:59	1	1	1	USRTblock	1	USRT	17	600000	#ff0000	10pct	1	50pct	50pct	2000	74600	76611	74262	57	76993	382	0	0	15
6.1.1	win	2020-04-22	13:03:59	1	1	1	USRTblock	1	USRT	18	600000	#ff0000	10pct	1	50pct	50pct	5000	77033	82044	76611	57	82294	250	0	0	16
6.1.1	win	2020-04-22	13:03:59	1	1	1	USRTblock	1	USRT	19	600000	#ff0000	10pct	1	50pct	50pct	8000	82299	90310	82044	57	90629	319	0	0	17
6.1.1	win	2020-04-22	13:03:59	1	1	1	USRTblock	1	USRT	20	600000	#ff0000	10pct	1	50pct	50pct	4000	90633	94643	90310	57	94937	294	0	0	18
6.1.1	win	2020-04-22	13:03:59	1	1	1	USRTblock	1	USRT	21	600000	#ff0000	10pct	1	50pct	50pct	3000	94941	97959	94643	57	98283	324	0	0	19
6.1.1	win	2020-04-22	13:03:59	1	1	1	USRTblock	1	USRT	22	600000	#ff0000	10pct	1	50pct	50pct	2000	98287	100309	97959	57	100684	375	0	0	20
6.1.1	win	2020-04-22	13:03:59	1	1	1	USRTblock	1	USRT	23	600000	#ff0000	10pct	1	50pct	50pct	7000	100688	107708	100309	57	108000	292	0	0	21
6.1.1	win	2020-04-22	13:03:59	1	1	1	USRTblock	1	USRT	24	600000	#ff0000	10pct	1	50pct	50pct	2000	108005	110024	107708	57	110454	430	0	0	22
6.1.1	win	2020-04-22	13:03:59	1	1	1	USRTblock	1	USRT	25	600000	#ff0000	10pct	1	50pct	50pct	6000	110459	116474	110024	57	116817	343	0	0	23
6.1.1	win	2020-04-22	13:03:59	1	1	1	USRTblock	1	USRT	26	600000	#ff0000	10pct	1	50pct	50pct	8000	116822	124841	116474	57	125193	352	0	0	24
6.1.1	win	2020-04-22	13:03:59	1	1	1	USRTblock	1	USRT	27	600000	#ff0000	10pct	1	50pct	50pct	8000	125197	133206	124841	57	133599	393	0	0	25
6.1.1	win	2020-04-22	13:03:59	1	1	1	USRTblock	1	USRT	28	600000	#ff0000	10pct	1	50pct	50pct	6000	133603	-1	133206	57	136879	0	1	1	26
6.1.1	win	2020-04-22	13:03:59	1	1	1	USRTblock	1	USRT	29	600000	#ff0000	10pct	1	50pct	50pct	5000	136886	141905	-1	57	142250	345	0	1	27
6.1.1	win	2020-04-22	13:03:59	1	1	1	USRTblock	1	USRT	30	600000	#ff0000	10pct	1	50pct	50pct	7000	142254	149271	141905	57	149669	398	0	1	28
6.1.1	win	2020-04-22	13:03:59	1	1	1	USRTblock	1	USRT	31	600000	#ff0000	10pct	1	50pct	50pct	3000	149673	152686	149271	57	153179	493	0	1	29
6.1.1	win	2020-04-22	13:03:59	1	1	1	USRTblock	1	USRT	32	600000	#ff0000	10pct	1	50pct	50pct	4000	153184	157203	152686	57	157514	311	0	1	30
6.1.1	win	2020-04-22	13:03:59	1	1	1	USRTblock	1	USRT	33	600000	#ff0000	10pct	1	50pct	50pct	3000	157518	160536	157203	57	160940	404	0	1	31
6.1.1	win	2020-04-22	13:03:59	1	1	1	USRTblock	1	USRT	34	600000	#ff0000	10pct	1	50pct	50pct	8000	160945	168952	160536	57	169205	253	0	1	32
6.1.1	win	2020-04-22	13:03:59	1	1	1	USRTblock	1	USRT	35	600000	#ff0000	10pct	1	50pct	50pct	4000	169209	173218	168952	57	173531	313	0	1	33
6.1.1	win	2020-04-22	13:03:59	1	1	1	USRTblock	1	USRT	36	600000	#ff0000	10pct	1	50pct	50pct	2000	173537	175551	173218	57	175934	383	0	1	34
6.1.1	win	2020-04-22	13:03:59	1	1	1	USRTblock	1	USRT	37	600000	#ff0000	10pct	1	50pct	50pct	5000	175939	180951	175551	57	181197	246	0	1	35
6.1.1	win	2020-04-22	13:03:59	1	1	1	USRTblock	1	USRT	38	600000	#ff0000	10pct	1	50pct	50pct	7000	181201	188216	180951	57	188497	281	0	1	36
6.1.1	win	2020-04-22	13:03:59	1	1	1	USRTblock	1	USRT	39	600000	#ff0000	10pct	1	50pct	50pct	4000	188501	192516	188216	57	192819	303	0	1	37
6.1.1	win	2020-04-22	13:03:59	1	1	1	USRTblock	1	USRT	40	600000	#ff0000	10pct	1	50pct	50pct	4000	192824	-1	192516	57	195568	0	1	2	38
6.1.1	win	2020-04-22	13:03:59	1	1	1	USRTblock	1	USRT	41	600000	#ff0000	10pct	1	50pct	50pct	6000	195572	201582	-1	57	201829	247	0	2	39
6.1.1	win	2020-04-22	13:03:59	1	1	1	USRTblock	1	USRT	42	600000	#ff0000	10pct	1	50pct	50pct	4000	201833	205848	201582	57	206174	326	0	2	40
6.1.1	win	2020-04-22	13:03:59	1	1	1	USRTblock	1	USRT	43	600000	#ff0000	10pct	1	50pct	50pct	8000	206179	214198	205848	57	214456	258	0	2	41
6.1.1	win	2020-04-22	13:03:59	1	1	1	USRTblock	1	USRT	44	600000	#ff0000	10pct	1	50pct	50pct	4000	214460	218480	214198	57	218754	274	0	2	42
6.1.1	win	2020-04-22	13:03:59	1	1	1	USRTblock	1	USRT	45	600000	#ff0000	10pct	1	50pct	50pct	4000	218758	222780	218480	57	223042	262	0	2	43
6.1.1	win	2020-04-22	13:03:59	1	1	1	USRTblock	1	USRT	46	600000	#ff0000	10pct	1	50pct	50pct	8000	223047	231063	222780	57	231361	298	0	2	44
6.1.1	win	2020-04-22	13:03:59	1	1	1	USRTblock	1	USRT	47	600000	#ff0000	10pct	1	50pct	50pct	8000	231366	239378	231063	57	239665	287	0	2	45
6.1.1	win	2020-04-22	13:03:59	1	1	1	USRTblock	1	USRT	48	600000	#ff0000	10pct	1	50pct	50pct	5000	239670	244678	239378	57	244954	276	0	2	46
6.1.1	win	2020-04-22	13:03:59	1	1	1	USRTblock	1	USRT	49	600000	#ff0000	10pct	1	50pct	50pct	3000	244959	247977	244678	57	248578	601	0	2	47
6.1.1	win	2020-04-22	13:03:59	1	1	1	USRTblock	1	USRT	50	600000	#ff0000	10pct	1	50pct	50pct	8000	248583	256593	247977	57	256912	319	0	2	48
6.1.1	win	2020-04-22	13:03:59	1	1	1	USRTblock	1	USRT	51	600000	#ff0000	10pct	1	50pct	50pct	3000	256916	259925	256593	57	260342	417	0	2	49
6.1.1	win	2020-04-22	13:03:59	1	1	1	USRTblock	1	USRT	52	600000	#ff0000	10pct	1	50pct	50pct	2000	260346	262359	259925	57	262844	485	0	2	50
6.1.1	win	2020-04-22	13:03:59	1	1	1	USRTblock	1	USRT	53	600000	#ff0000	10pct	1	50pct	50pct	3000	262848	265859	262359	57	266132	273	0	2	51
6.1.1	win	2020-04-22	13:03:59	1	1	1	USRTblock	1	USRT	54	600000	#ff0000	10pct	1	50pct	50pct	5000	266136	271159	265859	57	271417	258	0	2	52
6.1.1	win	2020-04-22	13:03:59	1	1	1	USRTblock	1	USRT	55	600000	#ff0000	10pct	1	50pct	50pct	3000	271421	274441	271159	57	274815	374	0	2	53
6.1.1	win	2020-04-22	13:03:59	1	1	1	USRTblock	1	USRT	56	600000	#ff0000	10pct	1	50pct	50pct	5000	274819	279841	274441	57	280209	368	0	2	54
6.1.1	win	2020-04-22	13:03:59	1	1	1	USRTblock	1	USRT	57	600000	#ff0000	10pct	1	50pct	50pct	8000	280214	288223	279841	57	288629	406	0	2	55
6.1.1	win	2020-04-22	13:03:59	1	1	1	USRTblock	1	USRT	58	600000	#ff0000	10pct	1	50pct	50pct	4000	288633	292639	288223	57	292915	276	0	2	56
6.1.1	win	2020-04-22	13:03:59	1	1	1	USRTblock	1	USRT	59	600000	#ff0000	10pct	1	50pct	50pct	8000	292919	300939	292639	57	301220	281	0	2	57
6.1.1	win	2020-04-22	13:03:59	1	1	1	USRTblock	1	USRT	60	600000	#ff0000	10pct	1	50pct	50pct	5000	301225	306238	300939	57	306602	364	0	2	58
6.1.1	win	2020-04-22	13:03:59	1	1	1	USRTblock	1	USRT	61	600000	#ff0000	10pct	1	50pct	50pct	5000	306606	311621	306238	57	311926	305	0	2	59
6.1.1	win	2020-04-22	13:03:59	1	1	1	USRTblock	1	USRT	62	600000	#ff0000	10pct	1	50pct	50pct	2000	311931	313937	311621	57	314233	296	0	2	60
6.1.1	win	2020-04-22	13:03:59	1	1	1	USRTblock	1	USRT	63	600000	#ff0000	10pct	1	50pct	50pct	2000	314238	316254	313937	57	316587	333	0	2	61
6.1.1	win	2020-04-22	13:03:59	1	1	1	USRTblock	1	USRT	64	600000	#ff0000	10pct	1	50pct	50pct	4000	316592	320603	316254	57	320874	271	0	2	62
6.1.1	win	2020-04-22	13:03:59	1	1	1	USRTblock	1	USRT	65	600000	#ff0000	10pct	1	50pct	50pct	2000	320878	322886	320603	57	323186	300	0	2	63
6.1.1	win	2020-04-22	13:03:59	1	1	1	USRTblock	1	USRT	66	600000	#ff0000	10pct	1	50pct	50pct	2000	323190	325203	322886	57	325548	345	0	2	64
6.1.1	win	2020-04-22	13:03:59	1	1	1	USRTblock	1	USRT	67	600000	#ff0000	10pct	1	50pct	50pct	6000	325552	331569	325203	57	331834	265	0	2	65
6.1.1	win	2020-04-22	13:03:59	1	1	1	USRTblock	1	USRT	68	600000	#ff0000	10pct	1	50pct	50pct	6000	331838	337852	331569	57	338195	343	0	2	66
6.1.1	win	2020-04-22	13:03:59	1	1	1	USRTblock	1	USRT	69	600000	#ff0000	10pct	1	50pct	50pct	2000	338199	340218	337852	57	340608	390	0	2	67
6.1.1	win	2020-04-22	13:03:59	1	1	1	USRTblock	1	USRT	70	600000	#ff0000	10pct	1	50pct	50pct	5000	340613	345634	340218	57	345906	272	0	2	68
6.1.1	win	2020-04-22	13:03:59	1	1	1	USRTblock	1	USRT	71	600000	#ff0000	10pct	1	50pct	50pct	8000	345910	353917	345634	57	354212	295	0	2	69
6.1.1	win	2020-04-22	13:03:59	1	1	1	USRTblock	1	USRT	72	600000	#ff0000	10pct	1	50pct	50pct	5000	354216	359233	353917	57	359535	302	0	2	70
6.1.1	win	2020-04-22	13:03:59	1	1	1	USRTblock	1	USRT	73	600000	#ff0000	10pct	1	50pct	50pct	3000	359539	362549	359233	57	362872	323	0	2	71
6.1.1	win	2020-04-22	13:03:59	1	1	1	USRTblock	1	USRT	74	600000	#ff0000	10pct	1	50pct	50pct	8000	362876	370883	362549	57	371405	522	0	2	72
6.1.1	win	2020-04-22	13:03:59	1	1	1	USRTblock	1	USRT	75	600000	#ff0000	10pct	1	50pct	50pct	4000	371409	375414	370883	57	375846	432	0	2	73
6.1.1	win	2020-04-22	13:03:59	1	1	1	USRTblock	1	USRT	76	600000	#ff0000	10pct	1	50pct	50pct	2000	375850	377865	375414	57	378208	343	0	2	74
6.1.1	win	2020-04-22	13:03:59	1	1	1	USRTblock	1	USRT	77	600000	#ff0000	10pct	1	50pct	50pct	8000	378213	386231	377865	57	386497	266	0	2	75
6.1.1	win	2020-04-22	13:03:59	1	1	1	USRTblock	1	USRT	78	600000	#ff0000	10pct	1	50pct	50pct	5000	386502	391513	386231	57	391761	248	0	2	76
6.1.1	win	2020-04-22	13:03:59	1	1	1	USRTblock	1	USRT	79	600000	#ff0000	10pct	1	50pct	50pct	7000	391766	398779	391513	57	399069	290	0	2	77
6.1.1	win	2020-04-22	13:03:59	1	1	1	USRTblock	1	USRT	80	600000	#ff0000	10pct	1	50pct	50pct	6000	399073	405079	398779	57	405350	271	0	2	78
6.1.1	win	2020-04-22	13:03:59	1	1	1	USRTblock	1	USRT	81	600000	#ff0000	10pct	1	50pct	50pct	7000	405354	412361	405079	57	412677	316	0	2	79
6.1.1	win	2020-04-22	13:03:59	1	1	1	USRTblock	1	USRT	82	600000	#ff0000	10pct	1	50pct	50pct	4000	412681	416694	412361	57	417075	381	0	2	80
6.1.1	win	2020-04-22	13:03:59	1	1	1	USRTblock	1	USRT	83	600000	#ff0000	10pct	1	50pct	50pct	4000	417080	421093	416694	57	421433	340	0	2	81
6.1.1	win	2020-04-22	13:03:59	1	1	1	USRTblock	1	USRT	84	600000	#ff0000	10pct	1	50pct	50pct	5000	421437	426443	421093	57	426768	325	0	2	82
6.1.1	win	2020-04-22	13:03:59	1	1	1	USRTblock	1	USRT	85	600000	#ff0000	10pct	1	50pct	50pct	6000	426772	432792	426443	57	433065	273	0	2	83
6.1.1	win	2020-04-22	13:03:59	1	1	1	USRTblock	1	USRT	86	600000	#ff0000	10pct	1	50pct	50pct	6000	433069	439075	432792	57	439350	275	0	2	84
6.1.1	win	2020-04-22	13:03:59	1	1	1	USRTblock	1	USRT	87	600000	#ff0000	10pct	1	50pct	50pct	4000	439354	443374	439075	57	443638	264	0	2	85
6.1.1	win	2020-04-22	13:03:59	1	1	1	USRTblock	1	USRT	88	600000	#ff0000	10pct	1	50pct	50pct	3000	443643	446657	443374	57	446933	276	0	2	86
6.1.1	win	2020-04-22	13:03:59	1	1	1	USRTblock	1	USRT	89	600000	#ff0000	10pct	1	50pct	50pct	3000	446937	449957	446657	57	450265	308	0	2	87
6.1.1	win	2020-04-22	13:03:59	1	1	1	USRTblock	1	USRT	90	600000	#ff0000	10pct	1	50pct	50pct	6000	450269	456290	449957	57	456571	281	0	2	88
6.1.1	win	2020-04-22	13:03:59	1	1	1	USRTblock	1	USRT	91	600000	#ff0000	10pct	1	50pct	50pct	4000	456577	460589	456290	57	460874	285	0	2	89
6.1.1	win	2020-04-22	13:03:59	1	1	1	USRTblock	1	USRT	92	600000	#ff0000	10pct	1	50pct	50pct	3000	460879	463889	460589	57	464223	334	0	2	90
6.1.1	win	2020-04-22	13:03:59	1	1	1	USRTblock	1	USRT	93	600000	#ff0000	10pct	1	50pct	50pct	6000	464227	470239	463889	57	470536	297	0	2	91
6.1.1	win	2020-04-22	13:03:59	1	1	1	USRTblock	1	USRT	94	600000	#ff0000	10pct	1	50pct	50pct	8000	470540	478554	470239	57	478839	285	0	2	92
6.1.1	win	2020-04-22	13:03:59	1	1	1	USRTblock	1	USRT	95	600000	#ff0000	10pct	1	50pct	50pct	2000	478844	480854	478554	57	481192	338	0	2	93
6.1.1	win	2020-04-22	13:03:59	1	1	1	USRTblock	1	USRT	96	600000	#ff0000	10pct	1	50pct	50pct	4000	481197	485203	480854	57	485545	342	0	2	94
6.1.1	win	2020-04-22	13:03:59	1	1	1	USRTblock	1	USRT	97	600000	#ff0000	10pct	1	50pct	50pct	5000	485550	490569	485203	57	490837	268	0	2	95
6.1.1	win	2020-04-22	13:03:59	1	1	1	USRTblock	1	USRT	98	600000	#ff0000	10pct	1	50pct	50pct	6000	490841	496852	490569	57	497158	306	0	2	96
6.1.1	win	2020-04-22	13:03:59	1	1	1	USRTblock	1	USRT	99	600000	#ff0000	10pct	1	50pct	50pct	8000	497162	505169	496852	57	505473	304	0	2	97
6.1.1	win	2020-04-22	13:03:59	1	1	1	USRTblock	1	USRT	100	600000	#ff0000	10pct	1	50pct	50pct	2000	505478	507484	505169	57	507810	326	0	2	98
6.1.1	win	2020-04-22	13:03:59	1	1	1	USRTblock	1	USRT	101	600000	#ff0000	10pct	1	50pct	50pct	4000	507815	511834	507484	57	512108	274	0	2	99
6.1.1	win	2020-04-22	13:03:59	1	1	1	USRTblock	1	USRT	102	600000	#ff0000	10pct	1	50pct	50pct	4000	512113	516134	511834	57	516577	443	0	2	100
6.1.1	win	2020-04-22	13:03:59	1	1	1	USRTblock	1	USRT	103	600000	#ff0000	10pct	1	50pct	50pct	6000	516581	522600	516134	57	522849	249	0	2	101
6.1.1	win	2020-04-22	13:03:59	1	1	1	USRTblock	1	USRT	104	600000	#ff0000	10pct	1	50pct	50pct	5000	522853	527866	522600	57	528095	229	0	2	102
6.1.1	win	2020-04-22	13:03:59	1	1	1	USRTblock	1	USRT	105	600000	#ff0000	10pct	1	50pct	50pct	4000	528100	532116	527866	57	532444	328	0	2	103
6.1.1	win	2020-04-22	13:03:59	1	1	1	USRTblock	1	USRT	106	600000	#ff0000	10pct	1	50pct	50pct	4000	532448	536465	532116	57	536743	278	0	2	104
6.1.1	win	2020-04-22	13:03:59	1	1	1	USRTblock	1	USRT	107	600000	#ff0000	10pct	1	50pct	50pct	3000	536747	539765	536465	57	540207	442	0	2	105
6.1.1	win	2020-04-22	13:03:59	1	1	1	USRTblock	1	USRT	108	600000	#ff0000	10pct	1	50pct	50pct	6000	540212	546231	539765	57	546461	230	0	2	106
6.1.1	win	2020-04-22	13:03:59	1	1	1	USRTblock	1	USRT	109	600000	#ff0000	10pct	1	50pct	50pct	5000	546465	551481	546231	57	551827	346	0	2	107
6.1.1	win	2020-04-22	13:03:59	1	1	1	USRTblock	1	USRT	110	600000	#ff0000	10pct	1	50pct	50pct	6000	551832	557847	551481	57	558091	244	0	2	108
6.1.1	win	2020-04-22	13:03:59	1	1	1	USRTblock	1	USRT	111	600000	#ff0000	10pct	1	50pct	50pct	7000	558095	565113	557847	57	565395	282	0	2	109
6.1.1	win	2020-04-22	13:03:59	1	1	1	USRTblock	1	USRT	112	600000	#ff0000	10pct	1	50pct	50pct	2000	565399	567412	565113	57	567843	431	0	2	110
6.1.1	win	2020-04-22	13:03:59	1	1	1	USRTblock	1	USRT	113	600000	#ff0000	10pct	1	50pct	50pct	6000	567847	573861	567412	57	574219	358	0	2	111
6.1.1	win	2020-04-22	13:03:59	1	1	1	USRTblock	1	USRT	114	600000	#ff0000	10pct	1	50pct	50pct	4000	574224	578244	573861	57	578615	371	0	2	112
6.1.1	win	2020-04-22	13:03:59	1	1	1	USRTblock	1	USRT	115	600000	#ff0000	10pct	1	50pct	50pct	2000	578620	580627	578244	57	581060	433	0	2	113
6.1.1	win	2020-04-22	13:03:59	1	1	1	USRTblock	1	USRT	116	600000	#ff0000	10pct	1	50pct	50pct	2000	581064	583076	580627	57	583483	407	0	2	114
6.1.1	win	2020-04-22	13:03:59	1	1	1	USRTblock	1	USRT	117	600000	#ff0000	10pct	1	50pct	50pct	8000	583488	591493	583076	57	591820	327	0	2	115
6.1.1	win	2020-04-22	13:03:59	1	1	1	USRTblock	1	USRT	118	600000	#ff0000	10pct	1	50pct	50pct	2000	591824	593842	591493	57	594240	398	0	2	116
6.1.1	win	2020-04-22	13:03:59	1	1	1	USRTblock	1	USRT	119	600000	#ff0000	10pct	1	50pct	50pct	7000	594244	-1	593842	0	594419	0	1	3	117
