build	computer.platform	date	time	subject	group	sessionid	blockcode	blocknum	trialcode	trialnum	testduration	targetcolor	targetsize	fixed	targetx	targety	stiminterval	trialStart	shape.targetcircle.timestamp	lastCircleTimestamp	response	rt_elapsed	rt	EarlyResponse	countEarlyResponses	countResponses
6.1.1	win	2020-04-22	13:29:41	1	1	1	USRTblock	1	USRT	3	600000	#ff0000	10pct	1	50pct	50pct	7000	4399	11409	3690	57	11686	277	0	0	1
6.1.1	win	2020-04-22	13:29:41	1	1	1	USRTblock	1	USRT	4	600000	#ff0000	10pct	1	50pct	50pct	4000	11703	15708	11409	57	16168	460	0	0	2
6.1.1	win	2020-04-22	13:29:41	1	1	1	USRTblock	1	USRT	5	600000	#ff0000	10pct	1	50pct	50pct	3000	16172	19191	15708	57	19703	512	0	0	3
6.1.1	win	2020-04-22	13:29:41	1	1	1	USRTblock	1	USRT	6	600000	#ff0000	10pct	1	50pct	50pct	8000	19706	27724	19191	57	28011	287	0	0	4
6.1.1	win	2020-04-22	13:29:41	1	1	1	USRTblock	1	USRT	7	600000	#ff0000	10pct	1	50pct	50pct	7000	28015	35023	27724	57	35304	281	0	0	5
6.1.1	win	2020-04-22	13:29:41	1	1	1	USRTblock	1	USRT	8	600000	#ff0000	10pct	1	50pct	50pct	8000	35308	43323	35023	57	43687	364	0	0	6
6.1.1	win	2020-04-22	13:29:41	1	1	1	USRTblock	1	USRT	9	600000	#ff0000	10pct	1	50pct	50pct	3000	43690	46705	43323	57	47028	323	0	0	7
6.1.1	win	2020-04-22	13:29:41	1	1	1	USRTblock	1	USRT	10	600000	#ff0000	10pct	1	50pct	50pct	5000	47059	52071	46705	57	52336	265	0	0	8
6.1.1	win	2020-04-22	13:29:41	1	1	1	USRTblock	1	USRT	11	600000	#ff0000	10pct	1	50pct	50pct	6000	52339	58354	52071	57	58713	359	0	0	9
6.1.1	win	2020-04-22	13:29:41	1	1	1	USRTblock	1	USRT	12	600000	#ff0000	10pct	1	50pct	50pct	4000	58716	62721	58354	57	63034	313	0	0	10
6.1.1	win	2020-04-22	13:29:41	1	1	1	USRTblock	1	USRT	13	600000	#ff0000	10pct	1	50pct	50pct	2000	63038	65053	62721	57	65370	317	0	0	11
6.1.1	win	2020-04-22	13:29:41	1	1	1	USRTblock	1	USRT	14	600000	#ff0000	10pct	1	50pct	50pct	4000	65373	69387	65053	57	69683	296	0	0	12
6.1.1	win	2020-04-22	13:29:41	1	1	1	USRTblock	1	USRT	15	600000	#ff0000	10pct	1	50pct	50pct	5000	69687	74703	69387	57	74985	282	0	0	13
6.1.1	win	2020-04-22	13:29:41	1	1	1	USRTblock	1	USRT	16	600000	#ff0000	10pct	1	50pct	50pct	3000	74989	78002	74703	57	78292	290	0	0	14
6.1.1	win	2020-04-22	13:29:41	1	1	1	USRTblock	1	USRT	17	600000	#ff0000	10pct	1	50pct	50pct	3000	78296	81301	78002	57	81598	297	0	0	15
6.1.1	win	2020-04-22	13:29:41	1	1	1	USRTblock	1	USRT	18	600000	#ff0000	10pct	1	50pct	50pct	4000	81601	85618	81301	57	85922	304	0	0	16
6.1.1	win	2020-04-22	13:29:41	1	1	1	USRTblock	1	USRT	19	600000	#ff0000	10pct	1	50pct	50pct	6000	85927	91934	85618	57	92264	330	0	0	17
6.1.1	win	2020-04-22	13:29:41	1	1	1	USRTblock	1	USRT	20	600000	#ff0000	10pct	1	50pct	50pct	3000	92268	95284	91934	57	95631	347	0	0	18
6.1.1	win	2020-04-22	13:29:41	1	1	1	USRTblock	1	USRT	21	600000	#ff0000	10pct	1	50pct	50pct	5000	95635	100650	95284	57	100929	279	0	0	19
6.1.1	win	2020-04-22	13:29:41	1	1	1	USRTblock	1	USRT	22	600000	#ff0000	10pct	1	50pct	50pct	6000	100932	106949	100650	57	107240	291	0	0	20
6.1.1	win	2020-04-22	13:29:41	1	1	1	USRTblock	1	USRT	23	600000	#ff0000	10pct	1	50pct	50pct	3000	107243	110249	106949	57	110613	364	0	0	21
6.1.1	win	2020-04-22	13:29:41	1	1	1	USRTblock	1	USRT	24	600000	#ff0000	10pct	1	50pct	50pct	8000	110616	118632	110249	57	118885	253	0	0	22
6.1.1	win	2020-04-22	13:29:41	1	1	1	USRTblock	1	USRT	25	600000	#ff0000	10pct	1	50pct	50pct	6000	118888	124898	118632	57	125192	294	0	0	23
6.1.1	win	2020-04-22	13:29:41	1	1	1	USRTblock	1	USRT	26	600000	#ff0000	10pct	1	50pct	50pct	8000	125196	133214	124898	57	133525	311	0	0	24
6.1.1	win	2020-04-22	13:29:41	1	1	1	USRTblock	1	USRT	27	600000	#ff0000	10pct	1	50pct	50pct	5000	133530	138546	133214	57	138981	435	0	0	25
6.1.1	win	2020-04-22	13:29:41	1	1	1	USRTblock	1	USRT	28	600000	#ff0000	10pct	1	50pct	50pct	8000	138984	146996	138546	57	147424	428	0	0	26
6.1.1	win	2020-04-22	13:29:41	1	1	1	USRTblock	1	USRT	29	600000	#ff0000	10pct	1	50pct	50pct	5000	147427	152445	146996	57	152757	312	0	0	27
6.1.1	win	2020-04-22	13:29:41	1	1	1	USRTblock	1	USRT	30	600000	#ff0000	10pct	1	50pct	50pct	2000	152760	154778	152445	57	155140	362	0	0	28
6.1.1	win	2020-04-22	13:29:41	1	1	1	USRTblock	1	USRT	31	600000	#ff0000	10pct	1	50pct	50pct	4000	155143	159161	154778	57	159509	348	0	0	29
6.1.1	win	2020-04-22	13:29:41	1	1	1	USRTblock	1	USRT	32	600000	#ff0000	10pct	1	50pct	50pct	8000	159512	167528	159161	57	167878	350	0	0	30
6.1.1	win	2020-04-22	13:29:41	1	1	1	USRTblock	1	USRT	33	600000	#ff0000	10pct	1	50pct	50pct	6000	167881	173893	167528	57	174169	276	0	0	31
6.1.1	win	2020-04-22	13:29:41	1	1	1	USRTblock	1	USRT	34	600000	#ff0000	10pct	1	50pct	50pct	7000	174172	181193	173893	57	181445	252	0	0	32
6.1.1	win	2020-04-22	13:29:41	1	1	1	USRTblock	1	USRT	35	600000	#ff0000	10pct	1	50pct	50pct	2000	181448	183458	181193	57	183838	380	0	0	33
6.1.1	win	2020-04-22	13:29:41	1	1	1	USRTblock	1	USRT	36	600000	#ff0000	10pct	1	50pct	50pct	2000	183841	185858	183458	57	186204	346	0	0	34
6.1.1	win	2020-04-22	13:29:41	1	1	1	USRTblock	1	USRT	37	600000	#ff0000	10pct	1	50pct	50pct	2000	186207	188224	185858	57	188530	306	0	0	35
6.1.1	win	2020-04-22	13:29:41	1	1	1	USRTblock	1	USRT	38	600000	#ff0000	10pct	1	50pct	50pct	8000	188534	196541	188224	57	197112	571	0	0	36
6.1.1	win	2020-04-22	13:29:41	1	1	1	USRTblock	1	USRT	39	600000	#ff0000	10pct	1	50pct	50pct	4000	197116	201123	196541	57	201426	303	0	0	37
6.1.1	win	2020-04-22	13:29:41	1	1	1	USRTblock	1	USRT	40	600000	#ff0000	10pct	1	50pct	50pct	8000	201429	209439	201123	57	209737	298	0	0	38
6.1.1	win	2020-04-22	13:29:41	1	1	1	USRTblock	1	USRT	41	600000	#ff0000	10pct	1	50pct	50pct	5000	209741	214755	209439	57	215017	262	0	0	39
6.1.1	win	2020-04-22	13:29:41	1	1	1	USRTblock	1	USRT	42	600000	#ff0000	10pct	1	50pct	50pct	2000	215020	217038	214755	57	217407	369	0	0	40
6.1.1	win	2020-04-22	13:29:41	1	1	1	USRTblock	1	USRT	43	600000	#ff0000	10pct	1	50pct	50pct	3000	217412	220421	217038	57	220948	527	0	0	41
6.1.1	win	2020-04-22	13:29:41	1	1	1	USRTblock	1	USRT	44	600000	#ff0000	10pct	1	50pct	50pct	8000	220952	228971	220421	57	229252	281	0	0	42
6.1.1	win	2020-04-22	13:29:41	1	1	1	USRTblock	1	USRT	45	600000	#ff0000	10pct	1	50pct	50pct	5000	229255	234270	228971	57	234552	282	0	0	43
6.1.1	win	2020-04-22	13:29:41	1	1	1	USRTblock	1	USRT	46	600000	#ff0000	10pct	1	50pct	50pct	7000	234556	241570	234270	57	241896	326	0	0	44
6.1.1	win	2020-04-22	13:29:41	1	1	1	USRTblock	1	USRT	47	600000	#ff0000	10pct	1	50pct	50pct	2000	241901	243919	241570	57	244348	429	0	0	45
6.1.1	win	2020-04-22	13:29:41	1	1	1	USRTblock	1	USRT	48	600000	#ff0000	10pct	1	50pct	50pct	8000	244351	252369	243919	57	252726	357	0	0	46
6.1.1	win	2020-04-22	13:29:41	1	1	1	USRTblock	1	USRT	49	600000	#ff0000	10pct	1	50pct	50pct	3000	252729	255735	252369	57	256093	358	0	0	47
6.1.1	win	2020-04-22	13:29:41	1	1	1	USRTblock	1	USRT	50	600000	#ff0000	10pct	1	50pct	50pct	4000	256097	260100	255735	57	260415	315	0	0	48
6.1.1	win	2020-04-22	13:29:41	1	1	1	USRTblock	1	USRT	51	600000	#ff0000	10pct	1	50pct	50pct	5000	260418	265433	260100	57	265725	292	0	0	49
6.1.1	win	2020-04-22	13:29:41	1	1	1	USRTblock	1	USRT	52	600000	#ff0000	10pct	1	50pct	50pct	6000	265728	271733	265433	57	272031	298	0	0	50
6.1.1	win	2020-04-22	13:29:41	1	1	1	USRTblock	1	USRT	53	600000	#ff0000	10pct	1	50pct	50pct	2000	272035	274049	271733	57	274367	318	0	0	51
6.1.1	win	2020-04-22	13:29:41	1	1	1	USRTblock	1	USRT	54	600000	#ff0000	10pct	1	50pct	50pct	4000	274370	278382	274049	57	278714	332	0	0	52
6.1.1	win	2020-04-22	13:29:41	1	1	1	USRTblock	1	USRT	55	600000	#ff0000	10pct	1	50pct	50pct	5000	278717	283732	278382	57	284064	332	0	0	53
6.1.1	win	2020-04-22	13:29:41	1	1	1	USRTblock	1	USRT	56	600000	#ff0000	10pct	1	50pct	50pct	6000	284068	290082	283732	57	290441	359	0	0	54
6.1.1	win	2020-04-22	13:29:41	1	1	1	USRTblock	1	USRT	57	600000	#ff0000	10pct	1	50pct	50pct	7000	290445	297464	290082	57	297760	296	0	0	55
6.1.1	win	2020-04-22	13:29:41	1	1	1	USRTblock	1	USRT	58	600000	#ff0000	10pct	1	50pct	50pct	6000	297764	303780	297464	57	304044	264	0	0	56
6.1.1	win	2020-04-22	13:29:41	1	1	1	USRTblock	1	USRT	59	600000	#ff0000	10pct	1	50pct	50pct	3000	304047	307063	303780	57	307314	251	0	0	57
6.1.1	win	2020-04-22	13:29:41	1	1	1	USRTblock	1	USRT	60	600000	#ff0000	10pct	1	50pct	50pct	6000	307318	313329	307063	57	313639	310	0	0	58
6.1.1	win	2020-04-22	13:29:41	1	1	1	USRTblock	1	USRT	61	600000	#ff0000	10pct	1	50pct	50pct	4000	313643	317662	313329	57	317954	292	0	0	59
6.1.1	win	2020-04-22	13:29:41	1	1	1	USRTblock	1	USRT	62	600000	#ff0000	10pct	1	50pct	50pct	8000	317957	325978	317662	57	326263	285	0	0	60
6.1.1	win	2020-04-22	13:29:41	1	1	1	USRTblock	1	USRT	63	600000	#ff0000	10pct	1	50pct	50pct	3000	326268	329277	325978	57	329575	298	0	0	61
6.1.1	win	2020-04-22	13:29:41	1	1	1	USRTblock	1	USRT	64	600000	#ff0000	10pct	1	50pct	50pct	4000	329578	333593	329277	57	333899	306	0	0	62
6.1.1	win	2020-04-22	13:29:41	1	1	1	USRTblock	1	USRT	65	600000	#ff0000	10pct	1	50pct	50pct	8000	333903	341910	333593	57	342155	245	0	0	63
6.1.1	win	2020-04-22	13:29:41	1	1	1	USRTblock	1	USRT	66	600000	#ff0000	10pct	1	50pct	50pct	7000	342159	349175	341910	57	349544	369	0	0	64
6.1.1	win	2020-04-22	13:29:41	1	1	1	USRTblock	1	USRT	67	600000	#ff0000	10pct	1	50pct	50pct	6000	349548	355558	349175	57	355859	301	0	0	65
6.1.1	win	2020-04-22	13:29:41	1	1	1	USRTblock	1	USRT	68	600000	#ff0000	10pct	1	50pct	50pct	5000	355863	360874	355558	57	361236	362	0	0	66
6.1.1	win	2020-04-22	13:29:41	1	1	1	USRTblock	1	USRT	69	600000	#ff0000	10pct	1	50pct	50pct	5000	361239	366257	360874	57	366642	385	0	0	67
6.1.1	win	2020-04-22	13:29:41	1	1	1	USRTblock	1	USRT	70	600000	#ff0000	10pct	1	50pct	50pct	2000	366646	368657	366257	57	369120	463	0	0	68
6.1.1	win	2020-04-22	13:29:41	1	1	1	USRTblock	1	USRT	71	600000	#ff0000	10pct	1	50pct	50pct	6000	369123	375139	368657	57	375502	363	0	0	69
6.1.1	win	2020-04-22	13:29:41	1	1	1	USRTblock	1	USRT	72	600000	#ff0000	10pct	1	50pct	50pct	8000	375505	383522	375139	57	383903	381	0	0	70
6.1.1	win	2020-04-22	13:29:41	1	1	1	USRTblock	1	USRT	73	600000	#ff0000	10pct	1	50pct	50pct	5000	383907	388922	383522	57	389213	291	0	0	71
6.1.1	win	2020-04-22	13:29:41	1	1	1	USRTblock	1	USRT	74	600000	#ff0000	10pct	1	50pct	50pct	8000	389217	397237	388922	57	397538	301	0	0	72
6.1.1	win	2020-04-22	13:29:41	1	1	1	USRTblock	1	USRT	75	600000	#ff0000	10pct	1	50pct	50pct	6000	397541	403553	397237	57	403820	267	0	0	73
6.1.1	win	2020-04-22	13:29:41	1	1	1	USRTblock	1	USRT	76	600000	#ff0000	10pct	1	50pct	50pct	2000	403823	405836	403553	57	406186	350	0	0	74
6.1.1	win	2020-04-22	13:29:41	1	1	1	USRTblock	1	USRT	77	600000	#ff0000	10pct	1	50pct	50pct	5000	406189	411202	405836	57	411476	274	0	0	75
6.1.1	win	2020-04-22	13:29:41	1	1	1	USRTblock	1	USRT	78	600000	#ff0000	10pct	1	50pct	50pct	2000	411480	413486	411202	57	413950	464	0	0	76
6.1.1	win	2020-04-22	13:29:41	1	1	1	USRTblock	1	USRT	79	600000	#ff0000	10pct	1	50pct	50pct	7000	413954	420968	413486	57	421292	324	0	0	77
6.1.1	win	2020-04-22	13:29:41	1	1	1	USRTblock	1	USRT	80	600000	#ff0000	10pct	1	50pct	50pct	5000	421296	426301	420968	57	426683	382	0	0	78
6.1.1	win	2020-04-22	13:29:41	1	1	1	USRTblock	1	USRT	81	600000	#ff0000	10pct	1	50pct	50pct	2000	426687	428701	426301	57	429076	375	0	0	79
6.1.1	win	2020-04-22	13:29:41	1	1	1	USRTblock	1	USRT	82	600000	#ff0000	10pct	1	50pct	50pct	3000	429079	432100	428701	57	432440	340	0	0	80
6.1.1	win	2020-04-22	13:29:41	1	1	1	USRTblock	1	USRT	83	600000	#ff0000	10pct	1	50pct	50pct	7000	432443	439450	432100	57	439693	243	0	0	81
6.1.1	win	2020-04-22	13:29:41	1	1	1	USRTblock	1	USRT	84	600000	#ff0000	10pct	1	50pct	50pct	3000	439696	-1	439450	57	441831	0	1	1	82
6.1.1	win	2020-04-22	13:29:41	1	1	1	USRTblock	1	USRT	85	600000	#ff0000	10pct	1	50pct	50pct	4000	441835	445849	-1	57	446126	277	0	1	83
6.1.1	win	2020-04-22	13:29:41	1	1	1	USRTblock	1	USRT	86	600000	#ff0000	10pct	1	50pct	50pct	2000	446129	448148	445849	57	448538	390	0	1	84
6.1.1	win	2020-04-22	13:29:41	1	1	1	USRTblock	1	USRT	87	600000	#ff0000	10pct	1	50pct	50pct	2000	448541	450548	448148	57	450871	323	0	1	85
6.1.1	win	2020-04-22	13:29:41	1	1	1	USRTblock	1	USRT	88	600000	#ff0000	10pct	1	50pct	50pct	4000	450874	454882	450548	57	455214	332	0	1	86
6.1.1	win	2020-04-22	13:29:41	1	1	1	USRTblock	1	USRT	89	600000	#ff0000	10pct	1	50pct	50pct	7000	455218	462231	454882	57	462493	262	0	1	87
6.1.1	win	2020-04-22	13:29:41	1	1	1	USRTblock	1	USRT	90	600000	#ff0000	10pct	1	50pct	50pct	3000	462497	465514	462231	57	465789	275	0	1	88
6.1.1	win	2020-04-22	13:29:41	1	1	1	USRTblock	1	USRT	91	600000	#ff0000	10pct	1	50pct	50pct	6000	465793	471813	465514	57	472151	338	0	1	89
6.1.1	win	2020-04-22	13:29:41	1	1	1	USRTblock	1	USRT	92	600000	#ff0000	10pct	1	50pct	50pct	4000	472154	476162	471813	57	476459	297	0	1	90
6.1.1	win	2020-04-22	13:29:41	1	1	1	USRTblock	1	USRT	93	600000	#ff0000	10pct	1	50pct	50pct	6000	476463	482479	476162	57	482874	395	0	1	91
6.1.1	win	2020-04-22	13:29:41	1	1	1	USRTblock	1	USRT	94	600000	#ff0000	10pct	1	50pct	50pct	6000	482878	488895	482479	57	489200	305	0	1	92
6.1.1	win	2020-04-22	13:29:41	1	1	1	USRTblock	1	USRT	95	600000	#ff0000	10pct	1	50pct	50pct	4000	489203	493211	488895	57	493531	320	0	1	93
6.1.1	win	2020-04-22	13:29:41	1	1	1	USRTblock	1	USRT	96	600000	#ff0000	10pct	1	50pct	50pct	3000	493534	496544	493211	57	496904	360	0	1	94
6.1.1	win	2020-04-22	13:29:41	1	1	1	USRTblock	1	USRT	97	600000	#ff0000	10pct	1	50pct	50pct	8000	496907	504926	496544	57	505202	276	0	1	95
6.1.1	win	2020-04-22	13:29:41	1	1	1	USRTblock	1	USRT	98	600000	#ff0000	10pct	1	50pct	50pct	3000	505205	508226	504926	57	508570	344	0	1	96
6.1.1	win	2020-04-22	13:29:41	1	1	1	USRTblock	1	USRT	99	600000	#ff0000	10pct	1	50pct	50pct	5000	508574	513592	508226	57	513862	270	0	1	97
6.1.1	win	2020-04-22	13:29:41	1	1	1	USRTblock	1	USRT	100	600000	#ff0000	10pct	1	50pct	50pct	5000	513865	518875	513592	57	519138	263	0	1	98
6.1.1	win	2020-04-22	13:29:41	1	1	1	USRTblock	1	USRT	101	600000	#ff0000	10pct	1	50pct	50pct	4000	519141	523158	518875	57	523426	268	0	1	99
6.1.1	win	2020-04-22	13:29:41	1	1	1	USRTblock	1	USRT	102	600000	#ff0000	10pct	1	50pct	50pct	6000	523430	529440	523158	57	529721	281	0	1	100
6.1.1	win	2020-04-22	13:29:41	1	1	1	USRTblock	1	USRT	103	600000	#ff0000	10pct	1	50pct	50pct	5000	529724	534740	529440	57	535087	347	0	1	101
6.1.1	win	2020-04-22	13:29:41	1	1	1	USRTblock	1	USRT	104	600000	#ff0000	10pct	1	50pct	50pct	7000	535091	542107	534740	57	542415	308	0	1	102
6.1.1	win	2020-04-22	13:29:41	1	1	1	USRTblock	1	USRT	105	600000	#ff0000	10pct	1	50pct	50pct	3000	542418	545439	542107	57	545824	385	0	1	103
6.1.1	win	2020-04-22	13:29:41	1	1	1	USRTblock	1	USRT	106	600000	#ff0000	10pct	1	50pct	50pct	8000	545829	553839	545439	57	554162	323	0	1	104
6.1.1	win	2020-04-22	13:29:41	1	1	1	USRTblock	1	USRT	107	600000	#ff0000	10pct	1	50pct	50pct	3000	554165	557171	553839	57	557607	436	0	1	105
6.1.1	win	2020-04-22	13:29:41	1	1	1	USRTblock	1	USRT	108	600000	#ff0000	10pct	1	50pct	50pct	8000	557610	565620	557171	57	565883	263	0	1	106
6.1.1	win	2020-04-22	13:29:41	1	1	1	USRTblock	1	USRT	109	600000	#ff0000	10pct	1	50pct	50pct	4000	565886	569903	565620	57	570192	289	0	1	107
6.1.1	win	2020-04-22	13:29:41	1	1	1	USRTblock	1	USRT	110	600000	#ff0000	10pct	1	50pct	50pct	7000	570196	577202	569903	57	577518	316	0	1	108
6.1.1	win	2020-04-22	13:29:41	1	1	1	USRTblock	1	USRT	111	600000	#ff0000	10pct	1	50pct	50pct	5000	577521	582535	577202	57	582832	297	0	1	109
6.1.1	win	2020-04-22	13:29:41	1	1	1	USRTblock	1	USRT	112	600000	#ff0000	10pct	1	50pct	50pct	6000	582836	588852	582535	57	589156	304	0	1	110
6.1.1	win	2020-04-22	13:29:41	1	1	1	USRTblock	1	USRT	113	600000	#ff0000	10pct	1	50pct	50pct	7000	589159	596168	588852	57	596457	289	0	1	111
6.1.1	win	2020-04-22	13:29:41	1	1	1	USRTblock	1	USRT	114	600000	#ff0000	10pct	1	50pct	50pct	5000	596461	601467	596168	57	601753	286	0	1	112
6.1.1	win	2020-04-22	13:29:41	1	1	1	USRTblock	1	USRT	115	600000	#ff0000	10pct	1	50pct	50pct	4000	601797	-1	601467	0	601882	0	1	2	113
