build	computer.platform	date	time	subject	group	sessionid	blockcode	blocknum	trialcode	trialnum	testduration	targetcolor	targetsize	fixed	targetx	targety	stiminterval	trialStart	shape.targetcircle.timestamp	lastCircleTimestamp	response	rt_elapsed	rt	EarlyResponse	countEarlyResponses	countResponses
6.1.1	win	2020-04-22	19:27:53	1	1	1	USRTblock	1	USRT	3	600000	#ff0000	10pct	1	50pct	50pct	4000	2755	6776	1990	57	7019	243	0	0	1
6.1.1	win	2020-04-22	19:27:53	1	1	1	USRTblock	1	USRT	4	600000	#ff0000	10pct	1	50pct	50pct	2000	7062	9075	6776	57	9359	284	0	0	2
6.1.1	win	2020-04-22	19:27:53	1	1	1	USRTblock	1	USRT	5	600000	#ff0000	10pct	1	50pct	50pct	2000	9363	11375	9075	57	11665	290	0	0	3
6.1.1	win	2020-04-22	19:27:53	1	1	1	USRTblock	1	USRT	6	600000	#ff0000	10pct	1	50pct	50pct	4000	11669	15675	11375	57	15938	263	0	0	4
6.1.1	win	2020-04-22	19:27:53	1	1	1	USRTblock	1	USRT	7	600000	#ff0000	10pct	1	50pct	50pct	6000	15941	21958	15675	57	22236	278	0	0	5
6.1.1	win	2020-04-22	19:27:53	1	1	1	USRTblock	1	USRT	8	600000	#ff0000	10pct	1	50pct	50pct	5000	22267	27274	21958	57	27569	295	0	0	6
6.1.1	win	2020-04-22	19:27:53	1	1	1	USRTblock	1	USRT	9	600000	#ff0000	10pct	1	50pct	50pct	5000	27573	32590	27274	57	32870	280	0	0	7
6.1.1	win	2020-04-22	19:27:53	1	1	1	USRTblock	1	USRT	10	600000	#ff0000	10pct	1	50pct	50pct	6000	32874	38890	32590	57	39167	277	0	0	8
6.1.1	win	2020-04-22	19:27:53	1	1	1	USRTblock	1	USRT	11	600000	#ff0000	10pct	1	50pct	50pct	3000	39170	42189	38890	57	42621	432	0	0	9
6.1.1	win	2020-04-22	19:27:53	1	1	1	USRTblock	1	USRT	12	600000	#ff0000	10pct	1	50pct	50pct	3000	42624	45639	42189	57	45918	279	0	0	10
6.1.1	win	2020-04-22	19:27:53	1	1	1	USRTblock	1	USRT	13	600000	#ff0000	10pct	1	50pct	50pct	8000	45921	53939	45639	57	54209	270	0	0	11
6.1.1	win	2020-04-22	19:27:53	1	1	1	USRTblock	1	USRT	14	600000	#ff0000	10pct	1	50pct	50pct	7000	54213	61221	53939	57	61546	325	0	0	12
6.1.1	win	2020-04-22	19:27:53	1	1	1	USRTblock	1	USRT	15	600000	#ff0000	10pct	1	50pct	50pct	7000	61550	68570	61221	57	68867	297	0	0	13
6.1.1	win	2020-04-22	19:27:53	1	1	1	USRTblock	1	USRT	16	600000	#ff0000	10pct	1	50pct	50pct	4000	68871	72886	68570	57	73221	335	0	0	14
6.1.1	win	2020-04-22	19:27:53	1	1	1	USRTblock	1	USRT	17	600000	#ff0000	10pct	1	50pct	50pct	6000	73224	79236	72886	57	79535	299	0	0	15
6.1.1	win	2020-04-22	19:27:53	1	1	1	USRTblock	1	USRT	18	600000	#ff0000	10pct	1	50pct	50pct	8000	79538	87552	79236	57	87885	333	0	0	16
6.1.1	win	2020-04-22	19:27:53	1	1	1	USRTblock	1	USRT	19	600000	#ff0000	10pct	1	50pct	50pct	6000	87891	93901	87552	57	94233	332	0	0	17
6.1.1	win	2020-04-22	19:27:53	1	1	1	USRTblock	1	USRT	20	600000	#ff0000	10pct	1	50pct	50pct	4000	94236	98250	93901	57	98608	358	0	0	18
6.1.1	win	2020-04-22	19:27:53	1	1	1	USRTblock	1	USRT	21	600000	#ff0000	10pct	1	50pct	50pct	6000	98612	104617	98250	57	104868	251	0	0	19
6.1.1	win	2020-04-22	19:27:53	1	1	1	USRTblock	1	USRT	22	600000	#ff0000	10pct	1	50pct	50pct	3000	104872	107882	104617	57	108162	280	0	0	20
6.1.1	win	2020-04-22	19:27:53	1	1	1	USRTblock	1	USRT	23	600000	#ff0000	10pct	1	50pct	50pct	4000	108166	112182	107882	57	112459	277	0	0	21
6.1.1	win	2020-04-22	19:27:53	1	1	1	USRTblock	1	USRT	24	600000	#ff0000	10pct	1	50pct	50pct	6000	112463	118482	112182	57	118756	274	0	0	22
6.1.1	win	2020-04-22	19:27:53	1	1	1	USRTblock	1	USRT	25	600000	#ff0000	10pct	1	50pct	50pct	6000	118759	124765	118482	57	125073	308	0	0	23
6.1.1	win	2020-04-22	19:27:53	1	1	1	USRTblock	1	USRT	26	600000	#ff0000	10pct	1	50pct	50pct	5000	125077	130097	124765	57	130387	290	0	0	24
6.1.1	win	2020-04-22	19:27:53	1	1	1	USRTblock	1	USRT	27	600000	#ff0000	10pct	1	50pct	50pct	5000	130390	135397	130097	57	135656	259	0	0	25
6.1.1	win	2020-04-22	19:27:53	1	1	1	USRTblock	1	USRT	28	600000	#ff0000	10pct	1	50pct	50pct	8000	135660	143680	135397	57	143971	291	0	0	26
6.1.1	win	2020-04-22	19:27:53	1	1	1	USRTblock	1	USRT	29	600000	#ff0000	10pct	1	50pct	50pct	6000	143974	149979	143680	57	150244	265	0	0	27
6.1.1	win	2020-04-22	19:27:53	1	1	1	USRTblock	1	USRT	30	600000	#ff0000	10pct	1	50pct	50pct	5000	150247	155262	149979	57	155608	346	0	0	28
6.1.1	win	2020-04-22	19:27:53	1	1	1	USRTblock	1	USRT	31	600000	#ff0000	10pct	1	50pct	50pct	2000	155611	157628	155262	57	157964	336	0	0	29
6.1.1	win	2020-04-22	19:27:53	1	1	1	USRTblock	1	USRT	32	600000	#ff0000	10pct	1	50pct	50pct	5000	157967	162977	157628	57	163235	258	0	0	30
6.1.1	win	2020-04-22	19:27:53	1	1	1	USRTblock	1	USRT	33	600000	#ff0000	10pct	1	50pct	50pct	5000	163240	168260	162977	57	168543	283	0	0	31
6.1.1	win	2020-04-22	19:27:53	1	1	1	USRTblock	1	USRT	34	600000	#ff0000	10pct	1	50pct	50pct	2000	168547	170560	168260	57	170932	372	0	0	32
6.1.1	win	2020-04-22	19:27:53	1	1	1	USRTblock	1	USRT	35	600000	#ff0000	10pct	1	50pct	50pct	6000	170936	176943	170560	57	177217	274	0	0	33
6.1.1	win	2020-04-22	19:27:53	1	1	1	USRTblock	1	USRT	36	600000	#ff0000	10pct	1	50pct	50pct	6000	177221	183225	176943	57	183529	304	0	0	34
6.1.1	win	2020-04-22	19:27:53	1	1	1	USRTblock	1	USRT	37	600000	#ff0000	10pct	1	50pct	50pct	7000	183532	190542	183225	57	190806	264	0	0	35
6.1.1	win	2020-04-22	19:27:53	1	1	1	USRTblock	1	USRT	38	600000	#ff0000	10pct	1	50pct	50pct	4000	190809	194824	190542	57	195109	285	0	0	36
6.1.1	win	2020-04-22	19:27:53	1	1	1	USRTblock	1	USRT	39	600000	#ff0000	10pct	1	50pct	50pct	6000	195112	201124	194824	57	201385	261	0	0	37
6.1.1	win	2020-04-22	19:27:53	1	1	1	USRTblock	1	USRT	40	600000	#ff0000	10pct	1	50pct	50pct	3000	201390	204406	201124	57	204714	308	0	0	38
6.1.1	win	2020-04-22	19:27:53	1	1	1	USRTblock	1	USRT	41	600000	#ff0000	10pct	1	50pct	50pct	3000	204717	207723	204406	57	208072	349	0	0	39
6.1.1	win	2020-04-22	19:27:53	1	1	1	USRTblock	1	USRT	42	600000	#ff0000	10pct	1	50pct	50pct	7000	208076	215089	207723	57	215352	263	0	0	40
6.1.1	win	2020-04-22	19:27:53	1	1	1	USRTblock	1	USRT	43	600000	#ff0000	10pct	1	50pct	50pct	6000	215356	221371	215089	57	221632	261	0	0	41
6.1.1	win	2020-04-22	19:27:53	1	1	1	USRTblock	1	USRT	44	600000	#ff0000	10pct	1	50pct	50pct	5000	221635	226654	221371	57	226978	324	0	0	42
6.1.1	win	2020-04-22	19:27:53	1	1	1	USRTblock	1	USRT	45	600000	#ff0000	10pct	1	50pct	50pct	7000	226981	233987	226654	57	234291	304	0	0	43
6.1.1	win	2020-04-22	19:27:53	1	1	1	USRTblock	1	USRT	46	600000	#ff0000	10pct	1	50pct	50pct	3000	234295	237303	233987	57	237646	343	0	0	44
6.1.1	win	2020-04-22	19:27:53	1	1	1	USRTblock	1	USRT	47	600000	#ff0000	10pct	1	50pct	50pct	8000	237649	245669	237303	57	245948	279	0	0	45
6.1.1	win	2020-04-22	19:27:53	1	1	1	USRTblock	1	USRT	48	600000	#ff0000	10pct	1	50pct	50pct	6000	245951	251969	245669	57	252438	469	0	0	46
6.1.1	win	2020-04-22	19:27:53	1	1	1	USRTblock	1	USRT	49	600000	#ff0000	10pct	1	50pct	50pct	6000	252442	258451	251969	57	258775	324	0	0	47
6.1.1	win	2020-04-22	19:27:53	1	1	1	USRTblock	1	USRT	50	600000	#ff0000	10pct	1	50pct	50pct	2000	258778	260784	258451	57	261231	447	0	0	48
6.1.1	win	2020-04-22	19:27:53	1	1	1	USRTblock	1	USRT	51	600000	#ff0000	10pct	1	50pct	50pct	7000	261235	268250	260784	57	268518	268	0	0	49
6.1.1	win	2020-04-22	19:27:53	1	1	1	USRTblock	1	USRT	52	600000	#ff0000	10pct	1	50pct	50pct	2000	268521	270533	268250	57	271151	618	0	0	50
6.1.1	win	2020-04-22	19:27:53	1	1	1	USRTblock	1	USRT	53	600000	#ff0000	10pct	1	50pct	50pct	2000	271155	273166	270533	57	273485	319	0	0	51
6.1.1	win	2020-04-22	19:27:53	1	1	1	USRTblock	1	USRT	54	600000	#ff0000	10pct	1	50pct	50pct	5000	273488	278499	273166	57	278825	326	0	0	52
6.1.1	win	2020-04-22	19:27:53	1	1	1	USRTblock	1	USRT	55	600000	#ff0000	10pct	1	50pct	50pct	3000	278829	281848	278499	57	282181	333	0	0	53
6.1.1	win	2020-04-22	19:27:53	1	1	1	USRTblock	1	USRT	56	600000	#ff0000	10pct	1	50pct	50pct	7000	282184	289199	281848	57	289466	267	0	0	54
6.1.1	win	2020-04-22	19:27:53	1	1	1	USRTblock	1	USRT	57	600000	#ff0000	10pct	1	50pct	50pct	5000	289469	294481	289199	57	294767	286	0	0	55
6.1.1	win	2020-04-22	19:27:53	1	1	1	USRTblock	1	USRT	58	600000	#ff0000	10pct	1	50pct	50pct	7000	294771	301780	294481	57	302082	302	0	0	56
6.1.1	win	2020-04-22	19:27:53	1	1	1	USRTblock	1	USRT	59	600000	#ff0000	10pct	1	50pct	50pct	6000	302086	308096	301780	57	308358	262	0	0	57
6.1.1	win	2020-04-22	19:27:53	1	1	1	USRTblock	1	USRT	60	600000	#ff0000	10pct	1	50pct	50pct	7000	308362	315379	308096	57	315672	293	0	0	58
6.1.1	win	2020-04-22	19:27:53	1	1	1	USRTblock	1	USRT	61	600000	#ff0000	10pct	1	50pct	50pct	2000	315675	317695	315379	57	318141	446	0	0	59
6.1.1	win	2020-04-22	19:27:53	1	1	1	USRTblock	1	USRT	62	600000	#ff0000	10pct	1	50pct	50pct	7000	318145	325162	317695	57	325480	318	0	0	60
6.1.1	win	2020-04-22	19:27:53	1	1	1	USRTblock	1	USRT	63	600000	#ff0000	10pct	1	50pct	50pct	5000	325483	330494	325162	57	330793	299	0	0	61
6.1.1	win	2020-04-22	19:27:53	1	1	1	USRTblock	1	USRT	64	600000	#ff0000	10pct	1	50pct	50pct	3000	330797	333810	330494	57	334164	354	0	0	62
6.1.1	win	2020-04-22	19:27:53	1	1	1	USRTblock	1	USRT	65	600000	#ff0000	10pct	1	50pct	50pct	5000	334168	339177	333810	57	339479	302	0	0	63
6.1.1	win	2020-04-22	19:27:53	1	1	1	USRTblock	1	USRT	66	600000	#ff0000	10pct	1	50pct	50pct	5000	339483	344493	339177	57	344817	324	0	0	64
6.1.1	win	2020-04-22	19:27:53	1	1	1	USRTblock	1	USRT	67	600000	#ff0000	10pct	1	50pct	50pct	7000	344821	351825	344493	57	352119	294	0	0	65
6.1.1	win	2020-04-22	19:27:53	1	1	1	USRTblock	1	USRT	68	600000	#ff0000	10pct	1	50pct	50pct	3000	352122	355141	351825	57	355473	332	0	0	66
6.1.1	win	2020-04-22	19:27:53	1	1	1	USRTblock	1	USRT	69	600000	#ff0000	10pct	1	50pct	50pct	2000	355476	357491	355141	57	357816	325	0	0	67
6.1.1	win	2020-04-22	19:27:53	1	1	1	USRTblock	1	USRT	70	600000	#ff0000	10pct	1	50pct	50pct	4000	357820	361824	357491	57	362149	325	0	0	68
6.1.1	win	2020-04-22	19:27:53	1	1	1	USRTblock	1	USRT	71	600000	#ff0000	10pct	1	50pct	50pct	5000	362152	367157	361824	57	367465	308	0	0	69
6.1.1	win	2020-04-22	19:27:53	1	1	1	USRTblock	1	USRT	72	600000	#ff0000	10pct	1	50pct	50pct	7000	367468	374473	367157	57	374768	295	0	0	70
6.1.1	win	2020-04-22	19:27:53	1	1	1	USRTblock	1	USRT	73	600000	#ff0000	10pct	1	50pct	50pct	2000	374772	376789	374473	57	377211	422	0	0	71
6.1.1	win	2020-04-22	19:27:53	1	1	1	USRTblock	1	USRT	74	600000	#ff0000	10pct	1	50pct	50pct	2000	377216	379222	376789	57	379636	414	0	0	72
6.1.1	win	2020-04-22	19:27:53	1	1	1	USRTblock	1	USRT	75	600000	#ff0000	10pct	1	50pct	50pct	4000	379640	383656	379222	57	383959	303	0	0	73
6.1.1	win	2020-04-22	19:27:53	1	1	1	USRTblock	1	USRT	76	600000	#ff0000	10pct	1	50pct	50pct	4000	383963	387971	383656	57	388309	338	0	0	74
6.1.1	win	2020-04-22	19:27:53	1	1	1	USRTblock	1	USRT	77	600000	#ff0000	10pct	1	50pct	50pct	7000	388312	395321	387971	57	395613	292	0	0	75
6.1.1	win	2020-04-22	19:27:53	1	1	1	USRTblock	1	USRT	78	600000	#ff0000	10pct	1	50pct	50pct	3000	395616	398637	395321	57	398939	302	0	0	76
6.1.1	win	2020-04-22	19:27:53	1	1	1	USRTblock	1	USRT	79	600000	#ff0000	10pct	1	50pct	50pct	6000	398942	404953	398637	57	405209	256	0	0	77
6.1.1	win	2020-04-22	19:27:53	1	1	1	USRTblock	1	USRT	80	600000	#ff0000	10pct	1	50pct	50pct	4000	405213	409219	404953	57	409536	317	0	0	78
6.1.1	win	2020-04-22	19:27:53	1	1	1	USRTblock	1	USRT	81	600000	#ff0000	10pct	1	50pct	50pct	2000	409540	411552	409219	57	411960	408	0	0	79
6.1.1	win	2020-04-22	19:27:53	1	1	1	USRTblock	1	USRT	82	600000	#ff0000	10pct	1	50pct	50pct	7000	411963	418968	411552	57	419280	312	0	0	80
6.1.1	win	2020-04-22	19:27:53	1	1	1	USRTblock	1	USRT	83	600000	#ff0000	10pct	1	50pct	50pct	6000	419284	425301	418968	57	425634	333	0	0	81
6.1.1	win	2020-04-22	19:27:53	1	1	1	USRTblock	1	USRT	84	600000	#ff0000	10pct	1	50pct	50pct	6000	425638	431651	425301	57	431912	261	0	0	82
6.1.1	win	2020-04-22	19:27:53	1	1	1	USRTblock	1	USRT	85	600000	#ff0000	10pct	1	50pct	50pct	4000	431916	435933	431651	57	436216	283	0	0	83
6.1.1	win	2020-04-22	19:27:53	1	1	1	USRTblock	1	USRT	86	600000	#ff0000	10pct	1	50pct	50pct	8000	436220	444233	435933	57	444699	466	0	0	84
6.1.1	win	2020-04-22	19:27:53	1	1	1	USRTblock	1	USRT	87	600000	#ff0000	10pct	1	50pct	50pct	7000	444702	451715	444233	57	452016	301	0	0	85
6.1.1	win	2020-04-22	19:27:53	1	1	1	USRTblock	1	USRT	88	600000	#ff0000	10pct	1	50pct	50pct	5000	452020	457031	451715	57	457347	316	0	0	86
6.1.1	win	2020-04-22	19:27:53	1	1	1	USRTblock	1	USRT	89	600000	#ff0000	10pct	1	50pct	50pct	3000	457351	460364	457031	57	460777	413	0	0	87
6.1.1	win	2020-04-22	19:27:53	1	1	1	USRTblock	1	USRT	90	600000	#ff0000	10pct	1	50pct	50pct	8000	460781	-1	460364	57	468219	0	1	1	88
6.1.1	win	2020-04-22	19:27:53	1	1	1	USRTblock	1	USRT	91	600000	#ff0000	10pct	1	50pct	50pct	7000	468222	475230	-1	57	475561	331	0	1	89
6.1.1	win	2020-04-22	19:27:53	1	1	1	USRTblock	1	USRT	92	600000	#ff0000	10pct	1	50pct	50pct	8000	475565	483579	475230	57	483913	334	0	1	90
6.1.1	win	2020-04-22	19:27:53	1	1	1	USRTblock	1	USRT	93	600000	#ff0000	10pct	1	50pct	50pct	6000	483917	489928	483579	57	490336	408	0	1	91
6.1.1	win	2020-04-22	19:27:53	1	1	1	USRTblock	1	USRT	94	600000	#ff0000	10pct	1	50pct	50pct	2000	490340	492360	489928	57	492841	481	0	1	92
6.1.1	win	2020-04-22	19:27:53	1	1	1	USRTblock	1	USRT	95	600000	#ff0000	10pct	1	50pct	50pct	7000	492844	499860	492360	57	500194	334	0	1	93
6.1.1	win	2020-04-22	19:27:53	1	1	1	USRTblock	1	USRT	96	600000	#ff0000	10pct	1	50pct	50pct	7000	500198	507210	499860	57	507462	252	0	1	94
6.1.1	win	2020-04-22	19:27:53	1	1	1	USRTblock	1	USRT	97	600000	#ff0000	10pct	1	50pct	50pct	2000	507466	509476	507210	57	509856	380	0	1	95
6.1.1	win	2020-04-22	19:27:53	1	1	1	USRTblock	1	USRT	98	600000	#ff0000	10pct	1	50pct	50pct	7000	509859	516875	509476	57	517174	299	0	1	96
6.1.1	win	2020-04-22	19:27:53	1	1	1	USRTblock	1	USRT	99	600000	#ff0000	10pct	1	50pct	50pct	2000	517178	519192	516875	57	519512	320	0	1	97
6.1.1	win	2020-04-22	19:27:53	1	1	1	USRTblock	1	USRT	100	600000	#ff0000	10pct	1	50pct	50pct	7000	519515	526524	519192	57	526907	383	0	1	98
6.1.1	win	2020-04-22	19:27:53	1	1	1	USRTblock	1	USRT	101	600000	#ff0000	10pct	1	50pct	50pct	5000	526911	531924	526524	57	532360	436	0	1	99
6.1.1	win	2020-04-22	19:27:53	1	1	1	USRTblock	1	USRT	102	600000	#ff0000	10pct	1	50pct	50pct	5000	532363	537373	531924	57	537710	337	0	1	100
6.1.1	win	2020-04-22	19:27:53	1	1	1	USRTblock	1	USRT	103	600000	#ff0000	10pct	1	50pct	50pct	4000	537714	541723	537373	57	542104	381	0	1	101
6.1.1	win	2020-04-22	19:27:53	1	1	1	USRTblock	1	USRT	104	600000	#ff0000	10pct	1	50pct	50pct	2000	542108	544122	541723	57	544427	305	0	1	102
6.1.1	win	2020-04-22	19:27:53	1	1	1	USRTblock	1	USRT	105	600000	#ff0000	10pct	1	50pct	50pct	5000	544430	549439	544122	57	549693	254	0	1	103
6.1.1	win	2020-04-22	19:27:53	1	1	1	USRTblock	1	USRT	106	600000	#ff0000	10pct	1	50pct	50pct	5000	549697	554705	549439	57	555005	300	0	1	104
6.1.1	win	2020-04-22	19:27:53	1	1	1	USRTblock	1	USRT	107	600000	#ff0000	10pct	1	50pct	50pct	5000	555008	560021	554705	57	560334	313	0	1	105
6.1.1	win	2020-04-22	19:27:53	1	1	1	USRTblock	1	USRT	108	600000	#ff0000	10pct	1	50pct	50pct	7000	560337	567354	560021	57	567608	254	0	1	106
6.1.1	win	2020-04-22	19:27:53	1	1	1	USRTblock	1	USRT	109	600000	#ff0000	10pct	1	50pct	50pct	5000	567612	572620	567354	57	572934	314	0	1	107
6.1.1	win	2020-04-22	19:27:53	1	1	1	USRTblock	1	USRT	110	600000	#ff0000	10pct	1	50pct	50pct	6000	572937	578952	572620	57	579315	363	0	1	108
6.1.1	win	2020-04-22	19:27:53	1	1	1	USRTblock	1	USRT	111	600000	#ff0000	10pct	1	50pct	50pct	2000	579319	581335	578952	57	581615	280	0	1	109
6.1.1	win	2020-04-22	19:27:53	1	1	1	USRTblock	1	USRT	112	600000	#ff0000	10pct	1	50pct	50pct	3000	581619	584635	581335	57	584935	300	0	1	110
6.1.1	win	2020-04-22	19:27:53	1	1	1	USRTblock	1	USRT	113	600000	#ff0000	10pct	1	50pct	50pct	2000	584939	586952	584635	57	587278	326	0	1	111
6.1.1	win	2020-04-22	19:27:53	1	1	1	USRTblock	1	USRT	114	600000	#ff0000	10pct	1	50pct	50pct	8000	587282	595302	586952	57	595575	273	0	1	112
6.1.1	win	2020-04-22	19:27:53	1	1	1	USRTblock	1	USRT	115	600000	#ff0000	10pct	1	50pct	50pct	2000	595579	597600	595302	57	597914	314	0	1	113
6.1.1	win	2020-04-22	19:27:53	1	1	1	USRTblock	1	USRT	116	600000	#ff0000	10pct	1	50pct	50pct	5000	597918	-1	597600	0	598044	0	1	2	114
