build	computer.platform	date	time	subject	group	sessionid	blockcode	blocknum	trialcode	trialnum	testduration	targetcolor	targetsize	fixed	targetx	targety	stiminterval	trialStart	shape.targetcircle.timestamp	lastCircleTimestamp	response	rt_elapsed	rt	EarlyResponse	countEarlyResponses	countResponses
6.1.1	win	2020-04-22	19:07:26	1	1	1	USRTblock	1	USRT	3	600000	#ff0000	10pct	1	50pct	50pct	8000	2960	10978	2192	57	11290	312	0	0	1
6.1.1	win	2020-04-22	19:07:26	1	1	1	USRTblock	1	USRT	4	600000	#ff0000	10pct	1	50pct	50pct	3000	11320	14327	10978	57	14675	348	0	0	2
6.1.1	win	2020-04-22	19:07:26	1	1	1	USRTblock	1	USRT	5	600000	#ff0000	10pct	1	50pct	50pct	4000	14679	18694	14327	57	18949	255	0	0	3
6.1.1	win	2020-04-22	19:07:26	1	1	1	USRTblock	1	USRT	6	600000	#ff0000	10pct	1	50pct	50pct	7000	18954	25977	18694	57	26326	349	0	0	4
6.1.1	win	2020-04-22	19:07:26	1	1	1	USRTblock	1	USRT	7	600000	#ff0000	10pct	1	50pct	50pct	8000	26330	34342	25977	57	34685	343	0	0	5
6.1.1	win	2020-04-22	19:07:26	1	1	1	USRTblock	1	USRT	8	600000	#ff0000	10pct	1	50pct	50pct	5000	34689	39708	34342	57	40019	311	0	0	6
6.1.1	win	2020-04-22	19:07:26	1	1	1	USRTblock	1	USRT	9	600000	#ff0000	10pct	1	50pct	50pct	6000	40022	46041	39708	57	46278	237	0	0	7
6.1.1	win	2020-04-22	19:07:26	1	1	1	USRTblock	1	USRT	10	600000	#ff0000	10pct	1	50pct	50pct	3000	46281	49290	46041	57	49585	295	0	0	8
6.1.1	win	2020-04-22	19:07:26	1	1	1	USRTblock	1	USRT	11	600000	#ff0000	10pct	1	50pct	50pct	5000	49588	54607	49290	57	54905	298	0	0	9
6.1.1	win	2020-04-22	19:07:26	1	1	1	USRTblock	1	USRT	12	600000	#ff0000	10pct	1	50pct	50pct	5000	54908	59923	54607	57	60346	423	0	0	10
6.1.1	win	2020-04-22	19:07:26	1	1	1	USRTblock	1	USRT	13	600000	#ff0000	10pct	1	50pct	50pct	5000	60350	65356	59923	57	65638	282	0	0	11
6.1.1	win	2020-04-22	19:07:26	1	1	1	USRTblock	1	USRT	14	600000	#ff0000	10pct	1	50pct	50pct	7000	65641	72656	65356	57	72921	265	0	0	12
6.1.1	win	2020-04-22	19:07:26	1	1	1	USRTblock	1	USRT	15	600000	#ff0000	10pct	1	50pct	50pct	7000	72925	79937	72656	57	80182	245	0	0	13
6.1.1	win	2020-04-22	19:07:26	1	1	1	USRTblock	1	USRT	16	600000	#ff0000	10pct	1	50pct	50pct	8000	80186	88204	79937	57	88493	289	0	0	14
6.1.1	win	2020-04-22	19:07:26	1	1	1	USRTblock	1	USRT	17	600000	#ff0000	10pct	1	50pct	50pct	5000	88496	93503	88204	57	93864	361	0	0	15
6.1.1	win	2020-04-22	19:07:26	1	1	1	USRTblock	1	USRT	18	600000	#ff0000	10pct	1	50pct	50pct	6000	93868	99885	93503	57	100190	305	0	0	16
6.1.1	win	2020-04-22	19:07:26	1	1	1	USRTblock	1	USRT	19	600000	#ff0000	10pct	1	50pct	50pct	4000	100194	104201	99885	57	104467	266	0	0	17
6.1.1	win	2020-04-22	19:07:26	1	1	1	USRTblock	1	USRT	20	600000	#ff0000	10pct	1	50pct	50pct	5000	104472	109485	104201	57	109906	421	0	0	18
6.1.1	win	2020-04-22	19:07:26	1	1	1	USRTblock	1	USRT	21	600000	#ff0000	10pct	1	50pct	50pct	2000	109910	111917	109485	57	112309	392	0	0	19
6.1.1	win	2020-04-22	19:07:26	1	1	1	USRTblock	1	USRT	22	600000	#ff0000	10pct	1	50pct	50pct	7000	112313	119334	111917	57	119651	317	0	0	20
6.1.1	win	2020-04-22	19:07:26	1	1	1	USRTblock	1	USRT	23	600000	#ff0000	10pct	1	50pct	50pct	6000	119654	125666	119334	57	126304	638	0	0	21
6.1.1	win	2020-04-22	19:07:26	1	1	1	USRTblock	1	USRT	24	600000	#ff0000	10pct	1	50pct	50pct	7000	126307	133316	125666	57	133570	254	0	0	22
6.1.1	win	2020-04-22	19:07:26	1	1	1	USRTblock	1	USRT	25	600000	#ff0000	10pct	1	50pct	50pct	2000	133574	135581	133316	57	135913	332	0	0	23
6.1.1	win	2020-04-22	19:07:26	1	1	1	USRTblock	1	USRT	26	600000	#ff0000	10pct	1	50pct	50pct	3000	135917	138931	135581	57	139325	394	0	0	24
6.1.1	win	2020-04-22	19:07:26	1	1	1	USRTblock	1	USRT	27	600000	#ff0000	10pct	1	50pct	50pct	8000	139329	147347	138931	57	147610	263	0	0	25
6.1.1	win	2020-04-22	19:07:26	1	1	1	USRTblock	1	USRT	28	600000	#ff0000	10pct	1	50pct	50pct	7000	147614	154630	147347	57	154950	320	0	0	26
6.1.1	win	2020-04-22	19:07:26	1	1	1	USRTblock	1	USRT	29	600000	#ff0000	10pct	1	50pct	50pct	4000	154954	158963	154630	57	159253	290	0	0	27
6.1.1	win	2020-04-22	19:07:26	1	1	1	USRTblock	1	USRT	30	600000	#ff0000	10pct	1	50pct	50pct	4000	159256	163262	158963	57	163546	284	0	0	28
6.1.1	win	2020-04-22	19:07:26	1	1	1	USRTblock	1	USRT	31	600000	#ff0000	10pct	1	50pct	50pct	7000	163551	170562	163262	57	170867	305	0	0	29
6.1.1	win	2020-04-22	19:07:26	1	1	1	USRTblock	1	USRT	32	600000	#ff0000	10pct	1	50pct	50pct	7000	170870	177878	170562	57	178156	278	0	0	30
6.1.1	win	2020-04-22	19:07:26	1	1	1	USRTblock	1	USRT	33	600000	#ff0000	10pct	1	50pct	50pct	8000	178159	186177	177878	57	186435	258	0	0	31
6.1.1	win	2020-04-22	19:07:26	1	1	1	USRTblock	1	USRT	34	600000	#ff0000	10pct	1	50pct	50pct	3000	186472	189493	186177	57	189751	258	0	0	32
6.1.1	win	2020-04-22	19:07:26	1	1	1	USRTblock	1	USRT	35	600000	#ff0000	10pct	1	50pct	50pct	7000	189754	196760	189493	57	196999	239	0	0	33
6.1.1	win	2020-04-22	19:07:26	1	1	1	USRTblock	1	USRT	36	600000	#ff0000	10pct	1	50pct	50pct	6000	197002	203009	196760	57	203304	295	0	0	34
6.1.1	win	2020-04-22	19:07:26	1	1	1	USRTblock	1	USRT	37	600000	#ff0000	10pct	1	50pct	50pct	7000	203308	210324	203009	57	210593	269	0	0	35
6.1.1	win	2020-04-22	19:07:26	1	1	1	USRTblock	1	USRT	38	600000	#ff0000	10pct	1	50pct	50pct	4000	210596	214607	210324	57	214904	297	0	0	36
6.1.1	win	2020-04-22	19:07:26	1	1	1	USRTblock	1	USRT	39	600000	#ff0000	10pct	1	50pct	50pct	5000	214908	219924	214607	57	220182	258	0	0	37
6.1.1	win	2020-04-22	19:07:26	1	1	1	USRTblock	1	USRT	40	600000	#ff0000	10pct	1	50pct	50pct	4000	220187	224206	219924	57	224499	293	0	0	38
6.1.1	win	2020-04-22	19:07:26	1	1	1	USRTblock	1	USRT	41	600000	#ff0000	10pct	1	50pct	50pct	4000	224502	228522	224206	57	228958	436	0	0	39
6.1.1	win	2020-04-22	19:07:26	1	1	1	USRTblock	1	USRT	42	600000	#ff0000	10pct	1	50pct	50pct	2000	228961	230972	228522	57	231301	329	0	0	40
6.1.1	win	2020-04-22	19:07:26	1	1	1	USRTblock	1	USRT	43	600000	#ff0000	10pct	1	50pct	50pct	8000	231306	239322	230972	57	239393	71	0	0	41
6.1.1	win	2020-04-22	19:07:26	1	1	1	USRTblock	1	USRT	44	600000	#ff0000	10pct	1	50pct	50pct	8000	239396	-1	239322	57	247193	0	1	1	42
6.1.1	win	2020-04-22	19:07:26	1	1	1	USRTblock	1	USRT	45	600000	#ff0000	10pct	1	50pct	50pct	2000	247197	249203	-1	57	249539	336	0	1	43
6.1.1	win	2020-04-22	19:07:26	1	1	1	USRTblock	1	USRT	46	600000	#ff0000	10pct	1	50pct	50pct	3000	249542	252553	249203	57	252831	278	0	1	44
6.1.1	win	2020-04-22	19:07:26	1	1	1	USRTblock	1	USRT	47	600000	#ff0000	10pct	1	50pct	50pct	6000	252834	258853	252553	57	259159	306	0	1	45
6.1.1	win	2020-04-22	19:07:26	1	1	1	USRTblock	1	USRT	48	600000	#ff0000	10pct	1	50pct	50pct	6000	259162	265169	258853	57	265433	264	0	1	46
6.1.1	win	2020-04-22	19:07:26	1	1	1	USRTblock	1	USRT	49	600000	#ff0000	10pct	1	50pct	50pct	7000	265437	272452	265169	57	272715	263	0	1	47
6.1.1	win	2020-04-22	19:07:26	1	1	1	USRTblock	1	USRT	50	600000	#ff0000	10pct	1	50pct	50pct	6000	272719	278734	272452	57	279124	390	0	1	48
6.1.1	win	2020-04-22	19:07:26	1	1	1	USRTblock	1	USRT	51	600000	#ff0000	10pct	1	50pct	50pct	4000	279128	283150	278734	57	283452	302	0	1	49
6.1.1	win	2020-04-22	19:07:26	1	1	1	USRTblock	1	USRT	52	600000	#ff0000	10pct	1	50pct	50pct	7000	283455	290466	283150	57	290672	206	0	1	50
6.1.1	win	2020-04-22	19:07:26	1	1	1	USRTblock	1	USRT	53	600000	#ff0000	10pct	1	50pct	50pct	2000	290676	292682	290466	57	293059	377	0	1	51
6.1.1	win	2020-04-22	19:07:26	1	1	1	USRTblock	1	USRT	54	600000	#ff0000	10pct	1	50pct	50pct	8000	293063	301082	292682	57	301361	279	0	1	52
6.1.1	win	2020-04-22	19:07:26	1	1	1	USRTblock	1	USRT	55	600000	#ff0000	10pct	1	50pct	50pct	6000	301364	307381	301082	57	307693	312	0	1	53
6.1.1	win	2020-04-22	19:07:26	1	1	1	USRTblock	1	USRT	56	600000	#ff0000	10pct	1	50pct	50pct	6000	307696	313714	307381	57	314008	294	0	1	54
6.1.1	win	2020-04-22	19:07:26	1	1	1	USRTblock	1	USRT	57	600000	#ff0000	10pct	1	50pct	50pct	3000	314011	317030	313714	57	317335	305	0	1	55
6.1.1	win	2020-04-22	19:07:26	1	1	1	USRTblock	1	USRT	58	600000	#ff0000	10pct	1	50pct	50pct	2000	317339	319347	317030	57	319669	322	0	1	56
6.1.1	win	2020-04-22	19:07:26	1	1	1	USRTblock	1	USRT	59	600000	#ff0000	10pct	1	50pct	50pct	3000	319672	322680	319347	57	322994	314	0	1	57
6.1.1	win	2020-04-22	19:07:26	1	1	1	USRTblock	1	USRT	60	600000	#ff0000	10pct	1	50pct	50pct	2000	322998	325013	322680	57	325364	351	0	1	58
6.1.1	win	2020-04-22	19:07:26	1	1	1	USRTblock	1	USRT	61	600000	#ff0000	10pct	1	50pct	50pct	7000	325367	332379	325013	57	332656	277	0	1	59
6.1.1	win	2020-04-22	19:07:26	1	1	1	USRTblock	1	USRT	62	600000	#ff0000	10pct	1	50pct	50pct	6000	332659	338678	332379	57	339061	383	0	1	60
6.1.1	win	2020-04-22	19:07:26	1	1	1	USRTblock	1	USRT	63	600000	#ff0000	10pct	1	50pct	50pct	3000	339065	342077	338678	57	342406	329	0	1	61
6.1.1	win	2020-04-22	19:07:26	1	1	1	USRTblock	1	USRT	64	600000	#ff0000	10pct	1	50pct	50pct	3000	342409	345427	342077	57	345817	390	0	1	62
6.1.1	win	2020-04-22	19:07:26	1	1	1	USRTblock	1	USRT	65	600000	#ff0000	10pct	1	50pct	50pct	7000	345822	352844	345427	57	353120	276	0	1	63
6.1.1	win	2020-04-22	19:07:26	1	1	1	USRTblock	1	USRT	66	600000	#ff0000	10pct	1	50pct	50pct	4000	353123	357143	352844	57	357513	370	0	1	64
6.1.1	win	2020-04-22	19:07:26	1	1	1	USRTblock	1	USRT	67	600000	#ff0000	10pct	1	50pct	50pct	8000	357516	365526	357143	57	365837	311	0	1	65
6.1.1	win	2020-04-22	19:07:26	1	1	1	USRTblock	1	USRT	68	600000	#ff0000	10pct	1	50pct	50pct	6000	365840	371858	365526	57	372139	281	0	1	66
6.1.1	win	2020-04-22	19:07:26	1	1	1	USRTblock	1	USRT	69	600000	#ff0000	10pct	1	50pct	50pct	8000	372142	380158	371858	57	380445	287	0	1	67
6.1.1	win	2020-04-22	19:07:26	1	1	1	USRTblock	1	USRT	70	600000	#ff0000	10pct	1	50pct	50pct	4000	380448	384457	380158	57	384831	374	0	1	68
6.1.1	win	2020-04-22	19:07:26	1	1	1	USRTblock	1	USRT	71	600000	#ff0000	10pct	1	50pct	50pct	6000	384835	390840	384457	57	391099	259	0	1	69
6.1.1	win	2020-04-22	19:07:26	1	1	1	USRTblock	1	USRT	72	600000	#ff0000	10pct	1	50pct	50pct	4000	391103	395123	390840	57	395462	339	0	1	70
6.1.1	win	2020-04-22	19:07:26	1	1	1	USRTblock	1	USRT	73	600000	#ff0000	10pct	1	50pct	50pct	2000	395466	397472	395123	57	397837	365	0	1	71
6.1.1	win	2020-04-22	19:07:26	1	1	1	USRTblock	1	USRT	74	600000	#ff0000	10pct	1	50pct	50pct	5000	397840	402855	397472	57	403200	345	0	1	72
6.1.1	win	2020-04-22	19:07:26	1	1	1	USRTblock	1	USRT	75	600000	#ff0000	10pct	1	50pct	50pct	5000	403218	408238	402855	57	408781	543	0	1	73
6.1.1	win	2020-04-22	19:07:26	1	1	1	USRTblock	1	USRT	76	600000	#ff0000	10pct	1	50pct	50pct	8000	408785	416804	408238	57	417081	277	0	1	74
6.1.1	win	2020-04-22	19:07:26	1	1	1	USRTblock	1	USRT	77	600000	#ff0000	10pct	1	50pct	50pct	7000	417085	424103	416804	57	424414	311	0	1	75
6.1.1	win	2020-04-22	19:07:26	1	1	1	USRTblock	1	USRT	78	600000	#ff0000	10pct	1	50pct	50pct	8000	424418	432436	424103	57	432768	332	0	1	76
6.1.1	win	2020-04-22	19:07:26	1	1	1	USRTblock	1	USRT	79	600000	#ff0000	10pct	1	50pct	50pct	5000	432771	437785	432436	57	438166	381	0	1	77
6.1.1	win	2020-04-22	19:07:26	1	1	1	USRTblock	1	USRT	80	600000	#ff0000	10pct	1	50pct	50pct	8000	438170	446185	437785	57	446480	295	0	1	78
6.1.1	win	2020-04-22	19:07:26	1	1	1	USRTblock	1	USRT	81	600000	#ff0000	10pct	1	50pct	50pct	3000	446483	449500	446185	57	449956	456	0	1	79
6.1.1	win	2020-04-22	19:07:26	1	1	1	USRTblock	1	USRT	82	600000	#ff0000	10pct	1	50pct	50pct	2000	449960	451967	449500	57	452376	409	0	1	80
6.1.1	win	2020-04-22	19:07:26	1	1	1	USRTblock	1	USRT	83	600000	#ff0000	10pct	1	50pct	50pct	5000	452380	457399	451967	57	457748	349	0	1	81
6.1.1	win	2020-04-22	19:07:26	1	1	1	USRTblock	1	USRT	84	600000	#ff0000	10pct	1	50pct	50pct	6000	457751	463766	457399	57	464049	283	0	1	82
6.1.1	win	2020-04-22	19:07:26	1	1	1	USRTblock	1	USRT	85	600000	#ff0000	10pct	1	50pct	50pct	6000	464052	470064	463766	57	470408	344	0	1	83
6.1.1	win	2020-04-22	19:07:26	1	1	1	USRTblock	1	USRT	86	600000	#ff0000	10pct	1	50pct	50pct	7000	470412	477432	470064	57	477634	202	0	1	84
6.1.1	win	2020-04-22	19:07:26	1	1	1	USRTblock	1	USRT	87	600000	#ff0000	10pct	1	50pct	50pct	5000	477637	482647	477432	57	483003	356	0	1	85
6.1.1	win	2020-04-22	19:07:26	1	1	1	USRTblock	1	USRT	88	600000	#ff0000	10pct	1	50pct	50pct	5000	483006	488013	482647	57	488470	457	0	1	86
6.1.1	win	2020-04-22	19:07:26	1	1	1	USRTblock	1	USRT	89	600000	#ff0000	10pct	1	50pct	50pct	7000	488474	495479	488013	57	495783	304	0	1	87
6.1.1	win	2020-04-22	19:07:26	1	1	1	USRTblock	1	USRT	90	600000	#ff0000	10pct	1	50pct	50pct	4000	495787	499795	495479	57	500153	358	0	1	88
6.1.1	win	2020-04-22	19:07:26	1	1	1	USRTblock	1	USRT	91	600000	#ff0000	10pct	1	50pct	50pct	3000	500157	503161	499795	57	503773	612	0	1	89
6.1.1	win	2020-04-22	19:07:26	1	1	1	USRTblock	1	USRT	92	600000	#ff0000	10pct	1	50pct	50pct	2000	503777	505794	503161	57	506179	385	0	1	90
6.1.1	win	2020-04-22	19:07:26	1	1	1	USRTblock	1	USRT	93	600000	#ff0000	10pct	1	50pct	50pct	4000	506183	510195	505794	57	510634	439	0	1	91
6.1.1	win	2020-04-22	19:07:26	1	1	1	USRTblock	1	USRT	94	600000	#ff0000	10pct	1	50pct	50pct	4000	510637	514644	510195	57	515002	358	0	1	92
6.1.1	win	2020-04-22	19:07:26	1	1	1	USRTblock	1	USRT	95	600000	#ff0000	10pct	1	50pct	50pct	3000	515006	518027	514644	57	518409	382	0	1	93
6.1.1	win	2020-04-22	19:07:26	1	1	1	USRTblock	1	USRT	96	600000	#ff0000	10pct	1	50pct	50pct	7000	518412	525426	518027	57	525766	340	0	1	94
6.1.1	win	2020-04-22	19:07:26	1	1	1	USRTblock	1	USRT	97	600000	#ff0000	10pct	1	50pct	50pct	5000	525770	530775	525426	57	531147	372	0	1	95
6.1.1	win	2020-04-22	19:07:26	1	1	1	USRTblock	1	USRT	98	600000	#ff0000	10pct	1	50pct	50pct	3000	531151	534159	530775	57	534567	408	0	1	96
6.1.1	win	2020-04-22	19:07:26	1	1	1	USRTblock	1	USRT	99	600000	#ff0000	10pct	1	50pct	50pct	4000	534572	538592	534159	57	538956	364	0	1	97
6.1.1	win	2020-04-22	19:07:26	1	1	1	USRTblock	1	USRT	100	600000	#ff0000	10pct	1	50pct	50pct	2000	538959	540974	538592	57	541400	426	0	1	98
6.1.1	win	2020-04-22	19:07:26	1	1	1	USRTblock	1	USRT	101	600000	#ff0000	10pct	1	50pct	50pct	7000	541403	548424	540974	57	548737	313	0	1	99
6.1.1	win	2020-04-22	19:07:26	1	1	1	USRTblock	1	USRT	102	600000	#ff0000	10pct	1	50pct	50pct	8000	548741	556757	548424	57	557056	299	0	1	100
6.1.1	win	2020-04-22	19:07:26	1	1	1	USRTblock	1	USRT	103	600000	#ff0000	10pct	1	50pct	50pct	5000	557060	562072	556757	57	562476	404	0	1	101
6.1.1	win	2020-04-22	19:07:26	1	1	1	USRTblock	1	USRT	104	600000	#ff0000	10pct	1	50pct	50pct	4000	562479	566489	562072	57	566880	391	0	1	102
6.1.1	win	2020-04-22	19:07:26	1	1	1	USRTblock	1	USRT	105	600000	#ff0000	10pct	1	50pct	50pct	4000	566884	-1	566489	57	569909	0	1	2	103
6.1.1	win	2020-04-22	19:07:26	1	1	1	USRTblock	1	USRT	106	600000	#ff0000	10pct	1	50pct	50pct	3000	569913	572921	-1	57	573315	394	0	2	104
6.1.1	win	2020-04-22	19:07:26	1	1	1	USRTblock	1	USRT	107	600000	#ff0000	10pct	1	50pct	50pct	6000	573319	579337	572921	57	579636	299	0	2	105
6.1.1	win	2020-04-22	19:07:26	1	1	1	USRTblock	1	USRT	108	600000	#ff0000	10pct	1	50pct	50pct	6000	579639	585654	579337	57	585953	299	0	2	106
6.1.1	win	2020-04-22	19:07:26	1	1	1	USRTblock	1	USRT	109	600000	#ff0000	10pct	1	50pct	50pct	4000	585957	589970	585654	57	590316	346	0	2	107
6.1.1	win	2020-04-22	19:07:26	1	1	1	USRTblock	1	USRT	110	600000	#ff0000	10pct	1	50pct	50pct	5000	590319	595336	589970	57	595652	316	0	2	108
6.1.1	win	2020-04-22	19:07:26	1	1	1	USRTblock	1	USRT	111	600000	#ff0000	10pct	1	50pct	50pct	5000	595655	600669	595336	57	600983	314	0	2	109
6.1.1	win	2020-04-22	19:07:26	1	1	1	USRTblock	1	USRT	112	600000	#ff0000	10pct	1	50pct	50pct	7000	600987	-1	600669	0	601101	0	1	3	110
