build	computer.platform	date	time	subject	group	sessionid	blockcode	blocknum	trialcode	trialnum	testduration	targetcolor	targetsize	fixed	targetx	targety	stiminterval	trialStart	shape.targetcircle.timestamp	lastCircleTimestamp	response	rt_elapsed	rt	EarlyResponse	countEarlyResponses	countResponses
6.1.1	win	2020-04-03	19:41:22	1	1	1	USRTblock	1	USRT	3	600000	#ff0000	10pct	1	50pct	50pct	6000	5043	11056	4283	57	11333	277	0	0	1
6.1.1	win	2020-04-03	19:41:22	1	1	1	USRTblock	1	USRT	4	600000	#ff0000	10pct	1	50pct	50pct	7000	11353	18368	11056	57	18644	276	0	0	2
6.1.1	win	2020-04-03	19:41:22	1	1	1	USRTblock	1	USRT	5	600000	#ff0000	10pct	1	50pct	50pct	3000	18649	21668	18368	57	22005	337	0	0	3
6.1.1	win	2020-04-03	19:41:22	1	1	1	USRTblock	1	USRT	6	600000	#ff0000	10pct	1	50pct	50pct	2000	22008	24018	21668	57	24384	366	0	0	4
6.1.1	win	2020-04-03	19:41:22	1	1	1	USRTblock	1	USRT	7	600000	#ff0000	10pct	1	50pct	50pct	7000	24388	31401	24018	57	31721	320	0	0	5
6.1.1	win	2020-04-03	19:41:22	1	1	1	USRTblock	1	USRT	8	600000	#ff0000	10pct	1	50pct	50pct	3000	31726	34750	31401	57	35129	379	0	0	6
6.1.1	win	2020-04-03	19:41:22	1	1	1	USRTblock	1	USRT	9	600000	#ff0000	10pct	1	50pct	50pct	7000	35134	42150	34750	57	42825	675	0	0	7
6.1.1	win	2020-04-03	19:41:22	1	1	1	USRTblock	1	USRT	10	600000	#ff0000	10pct	1	50pct	50pct	3000	42829	45849	42150	57	46219	370	0	0	8
6.1.1	win	2020-04-03	19:41:22	1	1	1	USRTblock	1	USRT	11	600000	#ff0000	10pct	1	50pct	50pct	7000	46223	53232	45849	57	53635	403	0	0	9
6.1.1	win	2020-04-03	19:41:22	1	1	1	USRTblock	1	USRT	12	600000	#ff0000	10pct	1	50pct	50pct	2000	53639	55648	53232	57	56086	438	0	0	10
6.1.1	win	2020-04-03	19:41:22	1	1	1	USRTblock	1	USRT	13	600000	#ff0000	10pct	1	50pct	50pct	2000	56090	58097	55648	57	58430	333	0	0	11
6.1.1	win	2020-04-03	19:41:22	1	1	1	USRTblock	1	USRT	14	600000	#ff0000	10pct	1	50pct	50pct	7000	58434	65447	58097	57	65707	260	0	0	12
6.1.1	win	2020-04-03	19:41:22	1	1	1	USRTblock	1	USRT	15	600000	#ff0000	10pct	1	50pct	50pct	7000	65711	72730	65447	57	73096	366	0	0	13
6.1.1	win	2020-04-03	19:41:22	1	1	1	USRTblock	1	USRT	16	600000	#ff0000	10pct	1	50pct	50pct	8000	73100	81113	72730	57	81452	339	0	0	14
6.1.1	win	2020-04-03	19:41:22	1	1	1	USRTblock	1	USRT	17	600000	#ff0000	10pct	1	50pct	50pct	6000	81456	87461	81113	57	87801	340	0	0	15
6.1.1	win	2020-04-03	19:41:22	1	1	1	USRTblock	1	USRT	18	600000	#ff0000	10pct	1	50pct	50pct	7000	87805	94811	87461	57	95237	426	0	0	16
6.1.1	win	2020-04-03	19:41:22	1	1	1	USRTblock	1	USRT	19	600000	#ff0000	10pct	1	50pct	50pct	3000	95241	98260	94811	57	98598	338	0	0	17
6.1.1	win	2020-04-03	19:41:22	1	1	1	USRTblock	1	USRT	20	600000	#ff0000	10pct	1	50pct	50pct	4000	98602	102611	98260	57	102935	324	0	0	18
6.1.1	win	2020-04-03	19:41:22	1	1	1	USRTblock	1	USRT	21	600000	#ff0000	10pct	1	50pct	50pct	6000	102939	108959	102611	57	109286	327	0	0	19
6.1.1	win	2020-04-03	19:41:22	1	1	1	USRTblock	1	USRT	22	600000	#ff0000	10pct	1	50pct	50pct	5000	109290	114309	108959	57	114646	337	0	0	20
6.1.1	win	2020-04-03	19:41:22	1	1	1	USRTblock	1	USRT	23	600000	#ff0000	10pct	1	50pct	50pct	3000	114650	117658	114309	57	117988	330	0	0	21
6.1.1	win	2020-04-03	19:41:22	1	1	1	USRTblock	1	USRT	24	600000	#ff0000	10pct	1	50pct	50pct	6000	117992	124009	117658	57	124290	281	0	0	22
6.1.1	win	2020-04-03	19:41:22	1	1	1	USRTblock	1	USRT	25	600000	#ff0000	10pct	1	50pct	50pct	8000	124293	132307	124009	57	132553	246	0	0	23
6.1.1	win	2020-04-03	19:41:22	1	1	1	USRTblock	1	USRT	26	600000	#ff0000	10pct	1	50pct	50pct	5000	132557	137573	132307	57	137875	302	0	0	24
6.1.1	win	2020-04-03	19:41:22	1	1	1	USRTblock	1	USRT	27	600000	#ff0000	10pct	1	50pct	50pct	8000	137879	145889	137573	57	146212	323	0	0	25
6.1.1	win	2020-04-03	19:41:22	1	1	1	USRTblock	1	USRT	28	600000	#ff0000	10pct	1	50pct	50pct	4000	146216	150239	145889	57	150854	615	0	0	26
6.1.1	win	2020-04-03	19:41:22	1	1	1	USRTblock	1	USRT	29	600000	#ff0000	10pct	1	50pct	50pct	4000	150858	154871	150239	57	155283	412	0	0	27
6.1.1	win	2020-04-03	19:41:22	1	1	1	USRTblock	1	USRT	30	600000	#ff0000	10pct	1	50pct	50pct	6000	155287	161304	154871	57	162008	704	0	0	28
6.1.1	win	2020-04-03	19:41:22	1	1	1	USRTblock	1	USRT	31	600000	#ff0000	10pct	1	50pct	50pct	4000	162012	166020	161304	57	166305	285	0	0	29
6.1.1	win	2020-04-03	19:41:22	1	1	1	USRTblock	1	USRT	32	600000	#ff0000	10pct	1	50pct	50pct	2000	166308	168319	166020	57	168755	436	0	0	30
6.1.1	win	2020-04-03	19:41:22	1	1	1	USRTblock	1	USRT	33	600000	#ff0000	10pct	1	50pct	50pct	4000	168759	172770	168319	57	173059	289	0	0	31
6.1.1	win	2020-04-03	19:41:22	1	1	1	USRTblock	1	USRT	34	600000	#ff0000	10pct	1	50pct	50pct	4000	173063	177069	172770	57	177400	331	0	0	32
6.1.1	win	2020-04-03	19:41:22	1	1	1	USRTblock	1	USRT	35	600000	#ff0000	10pct	1	50pct	50pct	3000	177404	180419	177069	57	180704	285	0	0	33
6.1.1	win	2020-04-03	19:41:22	1	1	1	USRTblock	1	USRT	36	600000	#ff0000	10pct	1	50pct	50pct	2000	180709	182718	180419	57	182990	272	0	0	34
6.1.1	win	2020-04-03	19:41:22	1	1	1	USRTblock	1	USRT	37	600000	#ff0000	10pct	1	50pct	50pct	5000	182994	188001	182718	57	188242	241	0	0	35
6.1.1	win	2020-04-03	19:41:22	1	1	1	USRTblock	1	USRT	38	600000	#ff0000	10pct	1	50pct	50pct	4000	188246	-1	188001	57	190000	0	1	1	36
6.1.1	win	2020-04-03	19:41:22	1	1	1	USRTblock	1	USRT	39	600000	#ff0000	10pct	1	50pct	50pct	8000	190005	198017	-1	57	198322	305	0	1	37
6.1.1	win	2020-04-03	19:41:22	1	1	1	USRTblock	1	USRT	40	600000	#ff0000	10pct	1	50pct	50pct	2000	198326	200333	198017	57	200688	355	0	1	38
6.1.1	win	2020-04-03	19:41:22	1	1	1	USRTblock	1	USRT	41	600000	#ff0000	10pct	1	50pct	50pct	7000	200692	207700	200333	57	208088	388	0	1	39
6.1.1	win	2020-04-03	19:41:22	1	1	1	USRTblock	1	USRT	42	600000	#ff0000	10pct	1	50pct	50pct	4000	208092	212099	207700	57	212462	363	0	1	40
6.1.1	win	2020-04-03	19:41:22	1	1	1	USRTblock	1	USRT	43	600000	#ff0000	10pct	1	50pct	50pct	4000	212466	216482	212099	57	216798	316	0	1	41
6.1.1	win	2020-04-03	19:41:22	1	1	1	USRTblock	1	USRT	44	600000	#ff0000	10pct	1	50pct	50pct	8000	216802	224815	216482	57	225105	290	0	1	42
6.1.1	win	2020-04-03	19:41:22	1	1	1	USRTblock	1	USRT	45	600000	#ff0000	10pct	1	50pct	50pct	5000	225109	230130	224815	57	230461	331	0	1	43
6.1.1	win	2020-04-03	19:41:22	1	1	1	USRTblock	1	USRT	46	600000	#ff0000	10pct	1	50pct	50pct	7000	230465	237480	230130	57	237799	319	0	1	44
6.1.1	win	2020-04-03	19:41:22	1	1	1	USRTblock	1	USRT	47	600000	#ff0000	10pct	1	50pct	50pct	4000	237802	241812	237480	57	242198	386	0	1	45
6.1.1	win	2020-04-03	19:41:22	1	1	1	USRTblock	1	USRT	48	600000	#ff0000	10pct	1	50pct	50pct	5000	242202	247212	241812	57	247499	287	0	1	46
6.1.1	win	2020-04-03	19:41:22	1	1	1	USRTblock	1	USRT	49	600000	#ff0000	10pct	1	50pct	50pct	2000	247503	249512	247212	57	250229	717	0	1	47
6.1.1	win	2020-04-03	19:41:22	1	1	1	USRTblock	1	USRT	50	600000	#ff0000	10pct	1	50pct	50pct	7000	250233	257244	249512	57	257726	482	0	1	48
6.1.1	win	2020-04-03	19:41:22	1	1	1	USRTblock	1	USRT	51	600000	#ff0000	10pct	1	50pct	50pct	6000	257730	263744	257244	57	264050	306	0	1	49
6.1.1	win	2020-04-03	19:41:22	1	1	1	USRTblock	1	USRT	52	600000	#ff0000	10pct	1	50pct	50pct	7000	264054	271061	263744	57	271355	294	0	1	50
6.1.1	win	2020-04-03	19:41:22	1	1	1	USRTblock	1	USRT	53	600000	#ff0000	10pct	1	50pct	50pct	8000	271359	279376	271061	57	279623	247	0	1	51
6.1.1	win	2020-04-03	19:41:22	1	1	1	USRTblock	1	USRT	54	600000	#ff0000	10pct	1	50pct	50pct	5000	279627	284642	279376	57	284973	331	0	1	52
6.1.1	win	2020-04-03	19:41:22	1	1	1	USRTblock	1	USRT	55	600000	#ff0000	10pct	1	50pct	50pct	2000	284977	286991	284642	57	287324	333	0	1	53
6.1.1	win	2020-04-03	19:41:22	1	1	1	USRTblock	1	USRT	56	600000	#ff0000	10pct	1	50pct	50pct	4000	287328	291341	286991	57	291618	277	0	1	54
6.1.1	win	2020-04-03	19:41:22	1	1	1	USRTblock	1	USRT	57	600000	#ff0000	10pct	1	50pct	50pct	6000	291622	297641	291341	57	297905	264	0	1	55
6.1.1	win	2020-04-03	19:41:22	1	1	1	USRTblock	1	USRT	58	600000	#ff0000	10pct	1	50pct	50pct	3000	297909	300923	297641	57	301382	459	0	1	56
6.1.1	win	2020-04-03	19:41:22	1	1	1	USRTblock	1	USRT	59	600000	#ff0000	10pct	1	50pct	50pct	4000	301386	305406	300923	57	305669	263	0	1	57
6.1.1	win	2020-04-03	19:41:22	1	1	1	USRTblock	1	USRT	60	600000	#ff0000	10pct	1	50pct	50pct	5000	305673	310689	305406	57	310968	279	0	1	58
6.1.1	win	2020-04-03	19:41:22	1	1	1	USRTblock	1	USRT	61	600000	#ff0000	10pct	1	50pct	50pct	8000	310972	318988	310689	57	319302	314	0	1	59
6.1.1	win	2020-04-03	19:41:22	1	1	1	USRTblock	1	USRT	62	600000	#ff0000	10pct	1	50pct	50pct	3000	319306	322321	318988	57	322678	357	0	1	60
6.1.1	win	2020-04-03	19:41:22	1	1	1	USRTblock	1	USRT	63	600000	#ff0000	10pct	1	50pct	50pct	7000	322682	329704	322321	57	330004	300	0	1	61
6.1.1	win	2020-04-03	19:41:22	1	1	1	USRTblock	1	USRT	64	600000	#ff0000	10pct	1	50pct	50pct	4000	330008	334020	329704	57	334270	250	0	1	62
6.1.1	win	2020-04-03	19:41:22	1	1	1	USRTblock	1	USRT	65	600000	#ff0000	10pct	1	50pct	50pct	6000	334274	340286	334020	57	340548	262	0	1	63
6.1.1	win	2020-04-03	19:41:22	1	1	1	USRTblock	1	USRT	66	600000	#ff0000	10pct	1	50pct	50pct	2000	340552	342569	340286	57	342973	404	0	1	64
6.1.1	win	2020-04-03	19:41:22	1	1	1	USRTblock	1	USRT	67	600000	#ff0000	10pct	1	50pct	50pct	3000	342977	345985	342569	57	346292	307	0	1	65
6.1.1	win	2020-04-03	19:41:22	1	1	1	USRTblock	1	USRT	68	600000	#ff0000	10pct	1	50pct	50pct	8000	346296	354301	345985	57	354617	316	0	1	66
6.1.1	win	2020-04-03	19:41:22	1	1	1	USRTblock	1	USRT	69	600000	#ff0000	10pct	1	50pct	50pct	5000	354621	359634	354301	57	359909	275	0	1	67
6.1.1	win	2020-04-03	19:41:22	1	1	1	USRTblock	1	USRT	70	600000	#ff0000	10pct	1	50pct	50pct	8000	359912	367934	359634	57	368266	332	0	1	68
6.1.1	win	2020-04-03	19:41:22	1	1	1	USRTblock	1	USRT	71	600000	#ff0000	10pct	1	50pct	50pct	5000	368270	373283	367934	57	373683	400	0	1	69
6.1.1	win	2020-04-03	19:41:22	1	1	1	USRTblock	1	USRT	72	600000	#ff0000	10pct	1	50pct	50pct	8000	373687	381699	373283	57	382001	302	0	1	70
6.1.1	win	2020-04-03	19:41:22	1	1	1	USRTblock	1	USRT	73	600000	#ff0000	10pct	1	50pct	50pct	6000	382005	388015	381699	57	388337	322	0	1	71
6.1.1	win	2020-04-03	19:41:22	1	1	1	USRTblock	1	USRT	74	600000	#ff0000	10pct	1	50pct	50pct	2000	388341	390347	388015	57	390923	576	0	1	72
6.1.1	win	2020-04-03	19:41:22	1	1	1	USRTblock	1	USRT	75	600000	#ff0000	10pct	1	50pct	50pct	2000	390927	392947	390347	57	393327	380	0	1	73
6.1.1	win	2020-04-03	19:41:22	1	1	1	USRTblock	1	USRT	76	600000	#ff0000	10pct	1	50pct	50pct	4000	393331	397347	392947	57	397661	314	0	1	74
6.1.1	win	2020-04-03	19:41:22	1	1	1	USRTblock	1	USRT	77	600000	#ff0000	10pct	1	50pct	50pct	4000	397665	401680	397347	57	402204	524	0	1	75
6.1.1	win	2020-04-03	19:41:22	1	1	1	USRTblock	1	USRT	78	600000	#ff0000	10pct	1	50pct	50pct	2000	402208	404230	401680	57	404594	364	0	1	76
6.1.1	win	2020-04-03	19:41:22	1	1	1	USRTblock	1	USRT	79	600000	#ff0000	10pct	1	50pct	50pct	3000	404598	407613	404230	57	407942	329	0	1	77
6.1.1	win	2020-04-03	19:41:22	1	1	1	USRTblock	1	USRT	80	600000	#ff0000	10pct	1	50pct	50pct	8000	407946	415963	407613	57	416316	353	0	1	78
6.1.1	win	2020-04-03	19:41:22	1	1	1	USRTblock	1	USRT	81	600000	#ff0000	10pct	1	50pct	50pct	5000	416320	421328	415963	57	421658	330	0	1	79
6.1.1	win	2020-04-03	19:41:22	1	1	1	USRTblock	1	USRT	82	600000	#ff0000	10pct	1	50pct	50pct	7000	421662	428678	421328	57	428934	256	0	1	80
6.1.1	win	2020-04-03	19:41:22	1	1	1	USRTblock	1	USRT	83	600000	#ff0000	10pct	1	50pct	50pct	7000	428938	435943	428678	57	436263	320	0	1	81
6.1.1	win	2020-04-03	19:41:22	1	1	1	USRTblock	1	USRT	84	600000	#ff0000	10pct	1	50pct	50pct	7000	436267	443276	435943	57	443670	394	0	1	82
6.1.1	win	2020-04-03	19:41:22	1	1	1	USRTblock	1	USRT	85	600000	#ff0000	10pct	1	50pct	50pct	8000	443674	451704	443276	57	452086	382	0	1	83
6.1.1	win	2020-04-03	19:41:22	1	1	1	USRTblock	1	USRT	86	600000	#ff0000	10pct	1	50pct	50pct	7000	452090	459108	451704	57	459416	308	0	1	84
6.1.1	win	2020-04-03	19:41:22	1	1	1	USRTblock	1	USRT	87	600000	#ff0000	10pct	1	50pct	50pct	3000	459420	462440	459108	57	462781	341	0	1	85
6.1.1	win	2020-04-03	19:41:22	1	1	1	USRTblock	1	USRT	88	600000	#ff0000	10pct	1	50pct	50pct	3000	462785	465807	462440	57	466196	389	0	1	86
6.1.1	win	2020-04-03	19:41:22	1	1	1	USRTblock	1	USRT	89	600000	#ff0000	10pct	1	50pct	50pct	6000	466200	472207	465807	57	472467	260	0	1	87
6.1.1	win	2020-04-03	19:41:22	1	1	1	USRTblock	1	USRT	90	600000	#ff0000	10pct	1	50pct	50pct	3000	472471	475489	472207	57	475783	294	0	1	88
6.1.1	win	2020-04-03	19:41:22	1	1	1	USRTblock	1	USRT	91	600000	#ff0000	10pct	1	50pct	50pct	2000	475787	477805	475489	57	478230	425	0	1	89
6.1.1	win	2020-04-03	19:41:22	1	1	1	USRTblock	1	USRT	92	600000	#ff0000	10pct	1	50pct	50pct	8000	478235	-1	477805	57	480418	0	1	2	90
6.1.1	win	2020-04-03	19:41:22	1	1	1	USRTblock	1	USRT	93	600000	#ff0000	10pct	1	50pct	50pct	5000	480421	485438	-1	57	485842	404	0	2	91
6.1.1	win	2020-04-03	19:41:22	1	1	1	USRTblock	1	USRT	94	600000	#ff0000	10pct	1	50pct	50pct	7000	485846	492854	485438	57	493358	504	0	2	92
6.1.1	win	2020-04-03	19:41:22	1	1	1	USRTblock	1	USRT	95	600000	#ff0000	10pct	1	50pct	50pct	8000	493362	501370	492854	57	501681	311	0	2	93
6.1.1	win	2020-04-03	19:41:22	1	1	1	USRTblock	1	USRT	96	600000	#ff0000	10pct	1	50pct	50pct	7000	501685	508703	501370	57	508996	293	0	2	94
6.1.1	win	2020-04-03	19:41:22	1	1	1	USRTblock	1	USRT	97	600000	#ff0000	10pct	1	50pct	50pct	8000	509000	517019	508703	57	517296	277	0	2	95
6.1.1	win	2020-04-03	19:41:22	1	1	1	USRTblock	1	USRT	98	600000	#ff0000	10pct	1	50pct	50pct	2000	517300	519318	517019	57	519667	349	0	2	96
6.1.1	win	2020-04-03	19:41:22	1	1	1	USRTblock	1	USRT	99	600000	#ff0000	10pct	1	50pct	50pct	2000	519670	521684	519318	57	522113	429	0	2	97
6.1.1	win	2020-04-03	19:41:22	1	1	1	USRTblock	1	USRT	100	600000	#ff0000	10pct	1	50pct	50pct	2000	522117	524134	521684	57	524498	364	0	2	98
6.1.1	win	2020-04-03	19:41:22	1	1	1	USRTblock	1	USRT	101	600000	#ff0000	10pct	1	50pct	50pct	6000	524502	530517	524134	57	530875	358	0	2	99
6.1.1	win	2020-04-03	19:41:22	1	1	1	USRTblock	1	USRT	102	600000	#ff0000	10pct	1	50pct	50pct	4000	530879	534900	530517	57	535315	415	0	2	100
6.1.1	win	2020-04-03	19:41:22	1	1	1	USRTblock	1	USRT	103	600000	#ff0000	10pct	1	50pct	50pct	4000	535319	539333	534900	57	539643	310	0	2	101
6.1.1	win	2020-04-03	19:41:22	1	1	1	USRTblock	1	USRT	104	600000	#ff0000	10pct	1	50pct	50pct	5000	539646	544666	539333	57	544933	267	0	2	102
6.1.1	win	2020-04-03	19:41:22	1	1	1	USRTblock	1	USRT	105	600000	#ff0000	10pct	1	50pct	50pct	7000	544937	551948	544666	57	552248	300	0	2	103
6.1.1	win	2020-04-03	19:41:22	1	1	1	USRTblock	1	USRT	106	600000	#ff0000	10pct	1	50pct	50pct	8000	552252	560264	551948	57	560527	263	0	2	104
6.1.1	win	2020-04-03	19:41:22	1	1	1	USRTblock	1	USRT	107	600000	#ff0000	10pct	1	50pct	50pct	3000	560531	563547	560264	57	563802	255	0	2	105
6.1.1	win	2020-04-03	19:41:22	1	1	1	USRTblock	1	USRT	108	600000	#ff0000	10pct	1	50pct	50pct	4000	563806	567813	563547	57	568083	270	0	2	106
6.1.1	win	2020-04-03	19:41:22	1	1	1	USRTblock	1	USRT	109	600000	#ff0000	10pct	1	50pct	50pct	4000	568086	572096	567813	57	572366	270	0	2	107
6.1.1	win	2020-04-03	19:41:22	1	1	1	USRTblock	1	USRT	110	600000	#ff0000	10pct	1	50pct	50pct	7000	572371	579379	572096	57	579720	341	0	2	108
6.1.1	win	2020-04-03	19:41:22	1	1	1	USRTblock	1	USRT	111	600000	#ff0000	10pct	1	50pct	50pct	6000	579724	585747	579379	57	585999	252	0	2	109
6.1.1	win	2020-04-03	19:41:22	1	1	1	USRTblock	1	USRT	112	600000	#ff0000	10pct	1	50pct	50pct	7000	586002	593011	585747	57	593254	243	0	2	110
6.1.1	win	2020-04-03	19:41:22	1	1	1	USRTblock	1	USRT	113	600000	#ff0000	10pct	1	50pct	50pct	8000	593258	601277	593011	57	601673	396	0	2	111
6.1.1	win	2020-04-03	19:41:22	1	1	1	USRTblock	1	USRT	114	600000	#ff0000	10pct	1	50pct	50pct	8000	601677	-1	601277	0	601737	0	1	3	112
