build	computer.platform	date	time	subject	group	sessionid	blockcode	blocknum	trialcode	trialnum	testduration	targetcolor	targetsize	fixed	targetx	targety	stiminterval	trialStart	shape.targetcircle.timestamp	lastCircleTimestamp	response	rt_elapsed	rt	EarlyResponse	countEarlyResponses	countResponses
6.1.1	win	2020-04-03	22:01:29	1	1	1	USRTblock	1	USRT	3	600000	#ff0000	10pct	1	50pct	50pct	4000	3074	7089	2251	57	7343	254	0	0	1
6.1.1	win	2020-04-03	22:01:29	1	1	1	USRTblock	1	USRT	4	600000	#ff0000	10pct	1	50pct	50pct	8000	7375	15387	7089	57	15632	245	0	0	2
6.1.1	win	2020-04-03	22:01:29	1	1	1	USRTblock	1	USRT	5	600000	#ff0000	10pct	1	50pct	50pct	8000	15636	-1	15387	57	20148	0	1	1	3
6.1.1	win	2020-04-03	22:01:29	1	1	1	USRTblock	1	USRT	6	600000	#ff0000	10pct	1	50pct	50pct	2000	20151	22169	-1	57	22407	238	0	1	4
6.1.1	win	2020-04-03	22:01:29	1	1	1	USRTblock	1	USRT	7	600000	#ff0000	10pct	1	50pct	50pct	2000	22411	24419	22169	57	24760	341	0	1	5
6.1.1	win	2020-04-03	22:01:29	1	1	1	USRTblock	1	USRT	8	600000	#ff0000	10pct	1	50pct	50pct	8000	24764	32786	24419	57	33025	239	0	1	6
6.1.1	win	2020-04-03	22:01:29	1	1	1	USRTblock	1	USRT	9	600000	#ff0000	10pct	1	50pct	50pct	6000	33029	39034	32786	57	39261	227	0	1	7
6.1.1	win	2020-04-03	22:01:29	1	1	1	USRTblock	1	USRT	10	600000	#ff0000	10pct	1	50pct	50pct	8000	39265	47284	39034	57	47660	376	0	1	8
6.1.1	win	2020-04-03	22:01:29	1	1	1	USRTblock	1	USRT	11	600000	#ff0000	10pct	1	50pct	50pct	8000	47664	55683	47284	57	55984	301	0	1	9
6.1.1	win	2020-04-03	22:01:29	1	1	1	USRTblock	1	USRT	12	600000	#ff0000	10pct	1	50pct	50pct	6000	55987	61999	55683	57	62296	297	0	1	10
6.1.1	win	2020-04-03	22:01:29	1	1	1	USRTblock	1	USRT	13	600000	#ff0000	10pct	1	50pct	50pct	5000	62300	67315	61999	57	67604	289	0	1	11
6.1.1	win	2020-04-03	22:01:29	1	1	1	USRTblock	1	USRT	14	600000	#ff0000	10pct	1	50pct	50pct	6000	67608	73614	67315	57	73894	280	0	1	12
6.1.1	win	2020-04-03	22:01:29	1	1	1	USRTblock	1	USRT	15	600000	#ff0000	10pct	1	50pct	50pct	6000	73898	79914	73614	57	80413	499	0	1	13
6.1.1	win	2020-04-03	22:01:29	1	1	1	USRTblock	1	USRT	16	600000	#ff0000	10pct	1	50pct	50pct	5000	80416	85429	79914	57	85703	274	0	1	14
6.1.1	win	2020-04-03	22:01:29	1	1	1	USRTblock	1	USRT	17	600000	#ff0000	10pct	1	50pct	50pct	2000	85706	87712	85429	57	88007	295	0	1	15
6.1.1	win	2020-04-03	22:01:29	1	1	1	USRTblock	1	USRT	18	600000	#ff0000	10pct	1	50pct	50pct	5000	88010	93029	87712	57	93283	254	0	1	16
6.1.1	win	2020-04-03	22:01:29	1	1	1	USRTblock	1	USRT	19	600000	#ff0000	10pct	1	50pct	50pct	3000	93287	96295	93029	57	96594	299	0	1	17
6.1.1	win	2020-04-03	22:01:29	1	1	1	USRTblock	1	USRT	20	600000	#ff0000	10pct	1	50pct	50pct	7000	96597	103612	96295	57	103871	259	0	1	18
6.1.1	win	2020-04-03	22:01:29	1	1	1	USRTblock	1	USRT	21	600000	#ff0000	10pct	1	50pct	50pct	7000	103875	-1	103612	57	110157	0	1	2	19
6.1.1	win	2020-04-03	22:01:29	1	1	1	USRTblock	1	USRT	22	600000	#ff0000	10pct	1	50pct	50pct	3000	110161	113176	-1	57	113450	274	0	2	20
6.1.1	win	2020-04-03	22:01:29	1	1	1	USRTblock	1	USRT	23	600000	#ff0000	10pct	1	50pct	50pct	3000	113453	116460	113176	57	116741	281	0	2	21
6.1.1	win	2020-04-03	22:01:29	1	1	1	USRTblock	1	USRT	24	600000	#ff0000	10pct	1	50pct	50pct	7000	116746	123759	116460	57	124143	384	0	2	22
6.1.1	win	2020-04-03	22:01:29	1	1	1	USRTblock	1	USRT	25	600000	#ff0000	10pct	1	50pct	50pct	5000	124147	129158	123759	57	129614	456	0	2	23
6.1.1	win	2020-04-03	22:01:29	1	1	1	USRTblock	1	USRT	26	600000	#ff0000	10pct	1	50pct	50pct	2000	129618	131625	129158	57	131991	366	0	2	24
6.1.1	win	2020-04-03	22:01:29	1	1	1	USRTblock	1	USRT	27	600000	#ff0000	10pct	1	50pct	50pct	6000	131995	138008	131625	57	138318	310	0	2	25
6.1.1	win	2020-04-03	22:01:29	1	1	1	USRTblock	1	USRT	28	600000	#ff0000	10pct	1	50pct	50pct	6000	138322	144341	138008	57	144581	240	0	2	26
6.1.1	win	2020-04-03	22:01:29	1	1	1	USRTblock	1	USRT	29	600000	#ff0000	10pct	1	50pct	50pct	8000	144584	152590	144341	57	152910	320	0	2	27
6.1.1	win	2020-04-03	22:01:29	1	1	1	USRTblock	1	USRT	30	600000	#ff0000	10pct	1	50pct	50pct	4000	152914	156923	152590	57	157357	434	0	2	28
6.1.1	win	2020-04-03	22:01:29	1	1	1	USRTblock	1	USRT	31	600000	#ff0000	10pct	1	50pct	50pct	2000	157360	159372	156923	57	159705	333	0	2	29
6.1.1	win	2020-04-03	22:01:29	1	1	1	USRTblock	1	USRT	32	600000	#ff0000	10pct	1	50pct	50pct	3000	159708	162722	159372	57	163078	356	0	2	30
6.1.1	win	2020-04-03	22:01:29	1	1	1	USRTblock	1	USRT	33	600000	#ff0000	10pct	1	50pct	50pct	2000	163082	165088	162722	57	165554	466	0	2	31
6.1.1	win	2020-04-03	22:01:29	1	1	1	USRTblock	1	USRT	34	600000	#ff0000	10pct	1	50pct	50pct	4000	165558	169571	165088	57	169910	339	0	2	32
6.1.1	win	2020-04-03	22:01:29	1	1	1	USRTblock	1	USRT	35	600000	#ff0000	10pct	1	50pct	50pct	5000	169914	174920	169571	57	175212	292	0	2	33
6.1.1	win	2020-04-03	22:01:29	1	1	1	USRTblock	1	USRT	36	600000	#ff0000	10pct	1	50pct	50pct	4000	175215	179220	174920	57	179490	270	0	2	34
6.1.1	win	2020-04-03	22:01:29	1	1	1	USRTblock	1	USRT	37	600000	#ff0000	10pct	1	50pct	50pct	6000	179494	185503	179220	57	185832	329	0	2	35
6.1.1	win	2020-04-03	22:01:29	1	1	1	USRTblock	1	USRT	38	600000	#ff0000	10pct	1	50pct	50pct	6000	185836	191852	185503	57	192205	353	0	2	36
6.1.1	win	2020-04-03	22:01:29	1	1	1	USRTblock	1	USRT	39	600000	#ff0000	10pct	1	50pct	50pct	5000	192208	197219	191852	57	197488	269	0	2	37
6.1.1	win	2020-04-03	22:01:29	1	1	1	USRTblock	1	USRT	40	600000	#ff0000	10pct	1	50pct	50pct	6000	197492	203501	197219	57	203788	287	0	2	38
6.1.1	win	2020-04-03	22:01:29	1	1	1	USRTblock	1	USRT	41	600000	#ff0000	10pct	1	50pct	50pct	6000	203791	209801	203501	57	210041	240	0	2	39
6.1.1	win	2020-04-03	22:01:29	1	1	1	USRTblock	1	USRT	42	600000	#ff0000	10pct	1	50pct	50pct	6000	210045	216050	209801	57	216302	252	0	2	40
6.1.1	win	2020-04-03	22:01:29	1	1	1	USRTblock	1	USRT	43	600000	#ff0000	10pct	1	50pct	50pct	7000	216306	223316	216050	57	223527	211	0	2	41
6.1.1	win	2020-04-03	22:01:29	1	1	1	USRTblock	1	USRT	44	600000	#ff0000	10pct	1	50pct	50pct	3000	223530	226549	223316	57	226815	266	0	2	42
6.1.1	win	2020-04-03	22:01:29	1	1	1	USRTblock	1	USRT	45	600000	#ff0000	10pct	1	50pct	50pct	8000	226819	-1	226549	57	231222	0	1	3	43
6.1.1	win	2020-04-03	22:01:29	1	1	1	USRTblock	1	USRT	46	600000	#ff0000	10pct	1	50pct	50pct	7000	231225	238231	-1	57	238506	275	0	3	44
6.1.1	win	2020-04-03	22:01:29	1	1	1	USRTblock	1	USRT	47	600000	#ff0000	10pct	1	50pct	50pct	2000	238509	240531	238231	57	240838	307	0	3	45
6.1.1	win	2020-04-03	22:01:29	1	1	1	USRTblock	1	USRT	48	600000	#ff0000	10pct	1	50pct	50pct	8000	240841	248847	240531	57	249123	276	0	3	46
6.1.1	win	2020-04-03	22:01:29	1	1	1	USRTblock	1	USRT	49	600000	#ff0000	10pct	1	50pct	50pct	2000	249127	251147	248847	57	251537	390	0	3	47
6.1.1	win	2020-04-03	22:01:29	1	1	1	USRTblock	1	USRT	50	600000	#ff0000	10pct	1	50pct	50pct	5000	251540	256545	251147	57	256840	295	0	3	48
6.1.1	win	2020-04-03	22:01:29	1	1	1	USRTblock	1	USRT	51	600000	#ff0000	10pct	1	50pct	50pct	8000	256844	264862	256545	57	265181	319	0	3	49
6.1.1	win	2020-04-03	22:01:29	1	1	1	USRTblock	1	USRT	52	600000	#ff0000	10pct	1	50pct	50pct	4000	265184	269194	264862	57	269469	275	0	3	50
6.1.1	win	2020-04-03	22:01:29	1	1	1	USRTblock	1	USRT	53	600000	#ff0000	10pct	1	50pct	50pct	3000	269472	272478	269194	57	272849	371	0	3	51
6.1.1	win	2020-04-03	22:01:29	1	1	1	USRTblock	1	USRT	54	600000	#ff0000	10pct	1	50pct	50pct	6000	272852	278860	272478	57	279187	327	0	3	52
6.1.1	win	2020-04-03	22:01:29	1	1	1	USRTblock	1	USRT	55	600000	#ff0000	10pct	1	50pct	50pct	6000	279190	285209	278860	57	285529	320	0	3	53
6.1.1	win	2020-04-03	22:01:29	1	1	1	USRTblock	1	USRT	56	600000	#ff0000	10pct	1	50pct	50pct	4000	285533	289543	285209	57	289850	307	0	3	54
6.1.1	win	2020-04-03	22:01:29	1	1	1	USRTblock	1	USRT	57	600000	#ff0000	10pct	1	50pct	50pct	5000	289854	294859	289543	57	295187	328	0	3	55
6.1.1	win	2020-04-03	22:01:29	1	1	1	USRTblock	1	USRT	58	600000	#ff0000	10pct	1	50pct	50pct	4000	295192	299208	294859	57	299674	466	0	3	56
6.1.1	win	2020-04-03	22:01:29	1	1	1	USRTblock	1	USRT	59	600000	#ff0000	10pct	1	50pct	50pct	2000	299678	301691	299208	57	302060	369	0	3	57
6.1.1	win	2020-04-03	22:01:29	1	1	1	USRTblock	1	USRT	60	600000	#ff0000	10pct	1	50pct	50pct	3000	302064	305075	301691	57	305343	268	0	3	58
6.1.1	win	2020-04-03	22:01:29	1	1	1	USRTblock	1	USRT	61	600000	#ff0000	10pct	1	50pct	50pct	8000	305347	313357	305075	57	313643	286	0	3	59
6.1.1	win	2020-04-03	22:01:29	1	1	1	USRTblock	1	USRT	62	600000	#ff0000	10pct	1	50pct	50pct	2000	313646	315656	313357	57	316037	381	0	3	60
6.1.1	win	2020-04-03	22:01:29	1	1	1	USRTblock	1	USRT	63	600000	#ff0000	10pct	1	50pct	50pct	7000	316041	323057	315656	57	323361	304	0	3	61
6.1.1	win	2020-04-03	22:01:29	1	1	1	USRTblock	1	USRT	64	600000	#ff0000	10pct	1	50pct	50pct	4000	323365	327372	323057	57	327748	376	0	3	62
6.1.1	win	2020-04-03	22:01:29	1	1	1	USRTblock	1	USRT	65	600000	#ff0000	10pct	1	50pct	50pct	6000	327752	333772	327372	57	334107	335	0	3	63
6.1.1	win	2020-04-03	22:01:29	1	1	1	USRTblock	1	USRT	66	600000	#ff0000	10pct	1	50pct	50pct	5000	334110	339121	333772	57	339407	286	0	3	64
6.1.1	win	2020-04-03	22:01:29	1	1	1	USRTblock	1	USRT	67	600000	#ff0000	10pct	1	50pct	50pct	7000	339410	346421	339121	57	346711	290	0	3	65
6.1.1	win	2020-04-03	22:01:29	1	1	1	USRTblock	1	USRT	68	600000	#ff0000	10pct	1	50pct	50pct	2000	346715	348720	346421	57	349110	390	0	3	66
6.1.1	win	2020-04-03	22:01:29	1	1	1	USRTblock	1	USRT	69	600000	#ff0000	10pct	1	50pct	50pct	3000	349114	352136	348720	57	352404	268	0	3	67
6.1.1	win	2020-04-03	22:01:29	1	1	1	USRTblock	1	USRT	70	600000	#ff0000	10pct	1	50pct	50pct	2000	352407	354420	352136	57	354746	326	0	3	68
6.1.1	win	2020-04-03	22:01:29	1	1	1	USRTblock	1	USRT	71	600000	#ff0000	10pct	1	50pct	50pct	3000	354749	357769	354420	57	358065	296	0	3	69
6.1.1	win	2020-04-03	22:01:29	1	1	1	USRTblock	1	USRT	72	600000	#ff0000	10pct	1	50pct	50pct	8000	358068	366085	357769	57	366359	274	0	3	70
6.1.1	win	2020-04-03	22:01:29	1	1	1	USRTblock	1	USRT	73	600000	#ff0000	10pct	1	50pct	50pct	6000	366363	372367	366085	57	372739	372	0	3	71
6.1.1	win	2020-04-03	22:01:29	1	1	1	USRTblock	1	USRT	74	600000	#ff0000	10pct	1	50pct	50pct	4000	372743	376750	372367	57	377300	550	0	3	72
6.1.1	win	2020-04-03	22:01:29	1	1	1	USRTblock	1	USRT	75	600000	#ff0000	10pct	1	50pct	50pct	6000	377304	383316	376750	57	383655	339	0	3	73
6.1.1	win	2020-04-03	22:01:29	1	1	1	USRTblock	1	USRT	76	600000	#ff0000	10pct	1	50pct	50pct	5000	383659	388666	383316	57	389479	813	0	3	74
6.1.1	win	2020-04-03	22:01:29	1	1	1	USRTblock	1	USRT	77	600000	#ff0000	10pct	1	50pct	50pct	7000	389483	396499	388666	57	396869	370	0	3	75
6.1.1	win	2020-04-03	22:01:29	1	1	1	USRTblock	1	USRT	78	600000	#ff0000	10pct	1	50pct	50pct	8000	396872	404881	396499	57	405219	338	0	3	76
6.1.1	win	2020-04-03	22:01:29	1	1	1	USRTblock	1	USRT	79	600000	#ff0000	10pct	1	50pct	50pct	4000	405222	-1	404881	57	405825	0	1	4	77
6.1.1	win	2020-04-03	22:01:29	1	1	1	USRTblock	1	USRT	80	600000	#ff0000	10pct	1	50pct	50pct	8000	405829	413847	-1	57	414121	274	0	4	78
6.1.1	win	2020-04-03	22:01:29	1	1	1	USRTblock	1	USRT	81	600000	#ff0000	10pct	1	50pct	50pct	6000	414125	420146	413847	57	420529	383	0	4	79
6.1.1	win	2020-04-03	22:01:29	1	1	1	USRTblock	1	USRT	82	600000	#ff0000	10pct	1	50pct	50pct	4000	420533	424545	420146	57	424865	320	0	4	80
6.1.1	win	2020-04-03	22:01:29	1	1	1	USRTblock	1	USRT	83	600000	#ff0000	10pct	1	50pct	50pct	8000	424869	432879	424545	57	433146	267	0	4	81
6.1.1	win	2020-04-03	22:01:29	1	1	1	USRTblock	1	USRT	84	600000	#ff0000	10pct	1	50pct	50pct	5000	433149	438161	432879	57	438500	339	0	4	82
6.1.1	win	2020-04-03	22:01:29	1	1	1	USRTblock	1	USRT	85	600000	#ff0000	10pct	1	50pct	50pct	5000	438503	443510	438161	57	443806	296	0	4	83
6.1.1	win	2020-04-03	22:01:29	1	1	1	USRTblock	1	USRT	86	600000	#ff0000	10pct	1	50pct	50pct	3000	443810	446827	443510	57	447253	426	0	4	84
6.1.1	win	2020-04-03	22:01:29	1	1	1	USRTblock	1	USRT	87	600000	#ff0000	10pct	1	50pct	50pct	8000	447256	455276	446827	57	455537	261	0	4	85
6.1.1	win	2020-04-03	22:01:29	1	1	1	USRTblock	1	USRT	88	600000	#ff0000	10pct	1	50pct	50pct	7000	455540	462559	455276	57	462853	294	0	4	86
6.1.1	win	2020-04-03	22:01:29	1	1	1	USRTblock	1	USRT	89	600000	#ff0000	10pct	1	50pct	50pct	8000	462856	470875	462559	57	471182	307	0	4	87
6.1.1	win	2020-04-03	22:01:29	1	1	1	USRTblock	1	USRT	90	600000	#ff0000	10pct	1	50pct	50pct	4000	471186	475206	470875	57	475564	358	0	4	88
6.1.1	win	2020-04-03	22:01:29	1	1	1	USRTblock	1	USRT	91	600000	#ff0000	10pct	1	50pct	50pct	5000	475568	480573	475206	57	480871	298	0	4	89
6.1.1	win	2020-04-03	22:01:29	1	1	1	USRTblock	1	USRT	92	600000	#ff0000	10pct	1	50pct	50pct	5000	480875	485890	480573	57	486311	421	0	4	90
6.1.1	win	2020-04-03	22:01:29	1	1	1	USRTblock	1	USRT	93	600000	#ff0000	10pct	1	50pct	50pct	3000	486314	489322	485890	57	489689	367	0	4	91
6.1.1	win	2020-04-03	22:01:29	1	1	1	USRTblock	1	USRT	94	600000	#ff0000	10pct	1	50pct	50pct	6000	489693	495705	489322	57	496105	400	0	4	92
6.1.1	win	2020-04-03	22:01:29	1	1	1	USRTblock	1	USRT	95	600000	#ff0000	10pct	1	50pct	50pct	7000	496108	503121	495705	57	503382	261	0	4	93
6.1.1	win	2020-04-03	22:01:29	1	1	1	USRTblock	1	USRT	96	600000	#ff0000	10pct	1	50pct	50pct	5000	503387	508404	503121	57	508683	279	0	4	94
6.1.1	win	2020-04-03	22:01:29	1	1	1	USRTblock	1	USRT	97	600000	#ff0000	10pct	1	50pct	50pct	5000	508687	513703	508404	57	513953	250	0	4	95
6.1.1	win	2020-04-03	22:01:29	1	1	1	USRTblock	1	USRT	98	600000	#ff0000	10pct	1	50pct	50pct	6000	513957	519970	513703	57	520371	401	0	4	96
6.1.1	win	2020-04-03	22:01:29	1	1	1	USRTblock	1	USRT	99	600000	#ff0000	10pct	1	50pct	50pct	6000	520376	526385	519970	57	526662	277	0	4	97
6.1.1	win	2020-04-03	22:01:29	1	1	1	USRTblock	1	USRT	100	600000	#ff0000	10pct	1	50pct	50pct	5000	526666	531685	526385	57	531992	307	0	4	98
6.1.1	win	2020-04-03	22:01:29	1	1	1	USRTblock	1	USRT	101	600000	#ff0000	10pct	1	50pct	50pct	6000	531995	538001	531685	57	538268	267	0	4	99
6.1.1	win	2020-04-03	22:01:29	1	1	1	USRTblock	1	USRT	102	600000	#ff0000	10pct	1	50pct	50pct	5000	538272	543284	538001	57	543555	271	0	4	100
6.1.1	win	2020-04-03	22:01:29	1	1	1	USRTblock	1	USRT	103	600000	#ff0000	10pct	1	50pct	50pct	2000	543559	545567	543284	57	545950	383	0	4	101
6.1.1	win	2020-04-03	22:01:29	1	1	1	USRTblock	1	USRT	104	600000	#ff0000	10pct	1	50pct	50pct	8000	545953	553967	545567	57	554201	234	0	4	102
6.1.1	win	2020-04-03	22:01:29	1	1	1	USRTblock	1	USRT	105	600000	#ff0000	10pct	1	50pct	50pct	6000	554205	560215	553967	57	560468	253	0	4	103
6.1.1	win	2020-04-03	22:01:29	1	1	1	USRTblock	1	USRT	106	600000	#ff0000	10pct	1	50pct	50pct	7000	560472	567481	560215	57	567730	249	0	4	104
6.1.1	win	2020-04-03	22:01:29	1	1	1	USRTblock	1	USRT	107	600000	#ff0000	10pct	1	50pct	50pct	6000	567732	573747	567481	57	574022	275	0	4	105
6.1.1	win	2020-04-03	22:01:29	1	1	1	USRTblock	1	USRT	108	600000	#ff0000	10pct	1	50pct	50pct	8000	574026	582047	573747	57	582290	243	0	4	106
6.1.1	win	2020-04-03	22:01:29	1	1	1	USRTblock	1	USRT	109	600000	#ff0000	10pct	1	50pct	50pct	3000	582293	585313	582047	57	585657	344	0	4	107
6.1.1	win	2020-04-03	22:01:29	1	1	1	USRTblock	1	USRT	110	600000	#ff0000	10pct	1	50pct	50pct	4000	585660	589679	585313	57	590020	341	0	4	108
6.1.1	win	2020-04-03	22:01:29	1	1	1	USRTblock	1	USRT	111	600000	#ff0000	10pct	1	50pct	50pct	4000	590023	594029	589679	57	594335	306	0	4	109
6.1.1	win	2020-04-03	22:01:29	1	1	1	USRTblock	1	USRT	112	600000	#ff0000	10pct	1	50pct	50pct	4000	594339	598345	594029	57	598606	261	0	4	110
6.1.1	win	2020-04-03	22:01:29	1	1	1	USRTblock	1	USRT	113	600000	#ff0000	10pct	1	50pct	50pct	4000	598609	-1	598345	0	598704	0	1	5	111
