build	computer.platform	date	time	subject	group	sessionid	blockcode	blocknum	trialcode	trialnum	testduration	targetcolor	targetsize	fixed	targetx	targety	stiminterval	trialStart	shape.targetcircle.timestamp	lastCircleTimestamp	response	rt_elapsed	rt	EarlyResponse	countEarlyResponses	countResponses
6.1.1	win	2020-04-03	22:43:13	1	1	1	USRTblock	1	USRT	3	600000	#ff0000	10pct	1	50pct	50pct	2000	6510	8516	5646	57	8792	276	0	0	1
6.1.1	win	2020-04-03	22:43:13	1	1	1	USRTblock	1	USRT	4	600000	#ff0000	10pct	1	50pct	50pct	3000	8826	11832	8516	57	12106	274	0	0	2
6.1.1	win	2020-04-03	22:43:13	1	1	1	USRTblock	1	USRT	5	600000	#ff0000	10pct	1	50pct	50pct	8000	12111	20132	11832	57	20418	286	0	0	3
6.1.1	win	2020-04-03	22:43:13	1	1	1	USRTblock	1	USRT	6	600000	#ff0000	10pct	1	50pct	50pct	4000	20422	24431	20132	57	24734	303	0	0	4
6.1.1	win	2020-04-03	22:43:13	1	1	1	USRTblock	1	USRT	7	600000	#ff0000	10pct	1	50pct	50pct	7000	24738	31747	24431	57	31996	249	0	0	5
6.1.1	win	2020-04-03	22:43:13	1	1	1	USRTblock	1	USRT	8	600000	#ff0000	10pct	1	50pct	50pct	2000	31999	34014	31747	57	34524	510	0	0	6
6.1.1	win	2020-04-03	22:43:13	1	1	1	USRTblock	1	USRT	9	600000	#ff0000	10pct	1	50pct	50pct	6000	34528	40547	34014	57	40868	321	0	0	7
6.1.1	win	2020-04-03	22:43:13	1	1	1	USRTblock	1	USRT	10	600000	#ff0000	10pct	1	50pct	50pct	8000	40871	48879	40547	57	49164	285	0	0	8
6.1.1	win	2020-04-03	22:43:13	1	1	1	USRTblock	1	USRT	11	600000	#ff0000	10pct	1	50pct	50pct	8000	49168	57178	48879	57	57476	298	0	0	9
6.1.1	win	2020-04-03	22:43:13	1	1	1	USRTblock	1	USRT	12	600000	#ff0000	10pct	1	50pct	50pct	4000	57481	61494	57178	57	61826	332	0	0	10
6.1.1	win	2020-04-03	22:43:13	1	1	1	USRTblock	1	USRT	13	600000	#ff0000	10pct	1	50pct	50pct	6000	61830	67844	61494	57	68127	283	0	0	11
6.1.1	win	2020-04-03	22:43:13	1	1	1	USRTblock	1	USRT	14	600000	#ff0000	10pct	1	50pct	50pct	5000	68130	73143	67844	57	73398	255	0	0	12
6.1.1	win	2020-04-03	22:43:13	1	1	1	USRTblock	1	USRT	15	600000	#ff0000	10pct	1	50pct	50pct	4000	73401	77410	73143	57	77708	298	0	0	13
6.1.1	win	2020-04-03	22:43:13	1	1	1	USRTblock	1	USRT	16	600000	#ff0000	10pct	1	50pct	50pct	2000	77713	79726	77410	57	80111	385	0	0	14
6.1.1	win	2020-04-03	22:43:13	1	1	1	USRTblock	1	USRT	17	600000	#ff0000	10pct	1	50pct	50pct	5000	80115	85126	79726	57	85362	236	0	0	15
6.1.1	win	2020-04-03	22:43:13	1	1	1	USRTblock	1	USRT	18	600000	#ff0000	10pct	1	50pct	50pct	2000	85366	87374	85126	57	87746	372	0	0	16
6.1.1	win	2020-04-03	22:43:13	1	1	1	USRTblock	1	USRT	19	600000	#ff0000	10pct	1	50pct	50pct	2000	87749	89758	87374	57	90061	303	0	0	17
6.1.1	win	2020-04-03	22:43:13	1	1	1	USRTblock	1	USRT	20	600000	#ff0000	10pct	1	50pct	50pct	7000	90065	97074	89758	57	97373	299	0	0	18
6.1.1	win	2020-04-03	22:43:13	1	1	1	USRTblock	1	USRT	21	600000	#ff0000	10pct	1	50pct	50pct	6000	97377	103390	97074	57	103718	328	0	0	19
6.1.1	win	2020-04-03	22:43:13	1	1	1	USRTblock	1	USRT	22	600000	#ff0000	10pct	1	50pct	50pct	7000	103722	110739	103390	57	111014	275	0	0	20
6.1.1	win	2020-04-03	22:43:13	1	1	1	USRTblock	1	USRT	23	600000	#ff0000	10pct	1	50pct	50pct	5000	111018	116022	110739	57	116329	307	0	0	21
6.1.1	win	2020-04-03	22:43:13	1	1	1	USRTblock	1	USRT	24	600000	#ff0000	10pct	1	50pct	50pct	5000	116333	121338	116022	57	121632	294	0	0	22
6.1.1	win	2020-04-03	22:43:13	1	1	1	USRTblock	1	USRT	25	600000	#ff0000	10pct	1	50pct	50pct	3000	121635	124655	121338	57	124961	306	0	0	23
6.1.1	win	2020-04-03	22:43:13	1	1	1	USRTblock	1	USRT	26	600000	#ff0000	10pct	1	50pct	50pct	4000	124964	128971	124655	57	129252	281	0	0	24
6.1.1	win	2020-04-03	22:43:13	1	1	1	USRTblock	1	USRT	27	600000	#ff0000	10pct	1	50pct	50pct	6000	129255	135270	128971	57	135404	134	0	0	25
6.1.1	win	2020-04-03	22:43:13	1	1	1	USRTblock	1	USRT	28	600000	#ff0000	10pct	1	50pct	50pct	5000	135407	140419	135270	57	140679	260	0	0	26
6.1.1	win	2020-04-03	22:43:13	1	1	1	USRTblock	1	USRT	29	600000	#ff0000	10pct	1	50pct	50pct	7000	140683	-1	140419	57	146965	0	1	1	27
6.1.1	win	2020-04-03	22:43:13	1	1	1	USRTblock	1	USRT	30	600000	#ff0000	10pct	1	50pct	50pct	4000	146969	150985	-1	57	151271	286	0	1	28
6.1.1	win	2020-04-03	22:43:13	1	1	1	USRTblock	1	USRT	31	600000	#ff0000	10pct	1	50pct	50pct	7000	151274	158285	150985	57	158543	258	0	1	29
6.1.1	win	2020-04-03	22:43:13	1	1	1	USRTblock	1	USRT	32	600000	#ff0000	10pct	1	50pct	50pct	8000	158547	166567	158285	57	166925	358	0	1	30
6.1.1	win	2020-04-03	22:43:13	1	1	1	USRTblock	1	USRT	33	600000	#ff0000	10pct	1	50pct	50pct	3000	166928	169933	166567	57	170252	319	0	1	31
6.1.1	win	2020-04-03	22:43:13	1	1	1	USRTblock	1	USRT	34	600000	#ff0000	10pct	1	50pct	50pct	7000	170255	177266	169933	57	177546	280	0	1	32
6.1.1	win	2020-04-03	22:43:13	1	1	1	USRTblock	1	USRT	35	600000	#ff0000	10pct	1	50pct	50pct	7000	177551	184565	177266	57	184847	282	0	1	33
6.1.1	win	2020-04-03	22:43:13	1	1	1	USRTblock	1	USRT	36	600000	#ff0000	10pct	1	50pct	50pct	5000	184851	189865	184565	57	190144	279	0	1	34
6.1.1	win	2020-04-03	22:43:13	1	1	1	USRTblock	1	USRT	37	600000	#ff0000	10pct	1	50pct	50pct	6000	190147	196164	189865	57	196423	259	0	1	35
6.1.1	win	2020-04-03	22:43:13	1	1	1	USRTblock	1	USRT	38	600000	#ff0000	10pct	1	50pct	50pct	3000	196427	199447	196164	57	199890	443	0	1	36
6.1.1	win	2020-04-03	22:43:13	1	1	1	USRTblock	1	USRT	39	600000	#ff0000	10pct	1	50pct	50pct	7000	199893	206914	199447	57	207200	286	0	1	37
6.1.1	win	2020-04-03	22:43:13	1	1	1	USRTblock	1	USRT	40	600000	#ff0000	10pct	1	50pct	50pct	3000	207203	210212	206914	57	210493	281	0	1	38
6.1.1	win	2020-04-03	22:43:13	1	1	1	USRTblock	1	USRT	41	600000	#ff0000	10pct	1	50pct	50pct	2000	210498	212512	210212	57	212834	322	0	1	39
6.1.1	win	2020-04-03	22:43:13	1	1	1	USRTblock	1	USRT	42	600000	#ff0000	10pct	1	50pct	50pct	6000	212838	218845	212512	57	219117	272	0	1	40
6.1.1	win	2020-04-03	22:43:13	1	1	1	USRTblock	1	USRT	43	600000	#ff0000	10pct	1	50pct	50pct	2000	219121	221128	218845	57	221509	381	0	1	41
6.1.1	win	2020-04-03	22:43:13	1	1	1	USRTblock	1	USRT	44	600000	#ff0000	10pct	1	50pct	50pct	5000	221512	226528	221128	57	226820	292	0	1	42
6.1.1	win	2020-04-03	22:43:13	1	1	1	USRTblock	1	USRT	45	600000	#ff0000	10pct	1	50pct	50pct	5000	226823	231844	226528	57	232122	278	0	1	43
6.1.1	win	2020-04-03	22:43:13	1	1	1	USRTblock	1	USRT	46	600000	#ff0000	10pct	1	50pct	50pct	2000	232125	234144	231844	57	234474	330	0	1	44
6.1.1	win	2020-04-03	22:43:13	1	1	1	USRTblock	1	USRT	47	600000	#ff0000	10pct	1	50pct	50pct	8000	234478	242494	234144	57	242760	266	0	1	45
6.1.1	win	2020-04-03	22:43:13	1	1	1	USRTblock	1	USRT	48	600000	#ff0000	10pct	1	50pct	50pct	8000	242765	250775	242494	57	251067	292	0	1	46
6.1.1	win	2020-04-03	22:43:13	1	1	1	USRTblock	1	USRT	49	600000	#ff0000	10pct	1	50pct	50pct	8000	251071	259092	250775	57	259377	285	0	1	47
6.1.1	win	2020-04-03	22:43:13	1	1	1	USRTblock	1	USRT	50	600000	#ff0000	10pct	1	50pct	50pct	2000	259380	261391	259092	57	262125	734	0	1	48
6.1.1	win	2020-04-03	22:43:13	1	1	1	USRTblock	1	USRT	51	600000	#ff0000	10pct	1	50pct	50pct	5000	262129	267140	261391	57	267462	322	0	1	49
6.1.1	win	2020-04-03	22:43:13	1	1	1	USRTblock	1	USRT	52	600000	#ff0000	10pct	1	50pct	50pct	6000	267466	273473	267140	57	273759	286	0	1	50
6.1.1	win	2020-04-03	22:43:13	1	1	1	USRTblock	1	USRT	53	600000	#ff0000	10pct	1	50pct	50pct	7000	273763	280773	273473	57	281097	324	0	1	51
6.1.1	win	2020-04-03	22:43:13	1	1	1	USRTblock	1	USRT	54	600000	#ff0000	10pct	1	50pct	50pct	7000	281102	288122	280773	57	288444	322	0	1	52
6.1.1	win	2020-04-03	22:43:13	1	1	1	USRTblock	1	USRT	55	600000	#ff0000	10pct	1	50pct	50pct	6000	288448	294454	288122	57	294702	248	0	1	53
6.1.1	win	2020-04-03	22:43:13	1	1	1	USRTblock	1	USRT	56	600000	#ff0000	10pct	1	50pct	50pct	3000	294706	297720	294454	57	297994	274	0	1	54
6.1.1	win	2020-04-03	22:43:13	1	1	1	USRTblock	1	USRT	57	600000	#ff0000	10pct	1	50pct	50pct	6000	297998	304003	297720	57	304266	263	0	1	55
6.1.1	win	2020-04-03	22:43:13	1	1	1	USRTblock	1	USRT	58	600000	#ff0000	10pct	1	50pct	50pct	6000	304271	310286	304003	57	310555	269	0	1	56
6.1.1	win	2020-04-03	22:43:13	1	1	1	USRTblock	1	USRT	59	600000	#ff0000	10pct	1	50pct	50pct	8000	310558	318569	310286	57	318843	274	0	1	57
6.1.1	win	2020-04-03	22:43:13	1	1	1	USRTblock	1	USRT	60	600000	#ff0000	10pct	1	50pct	50pct	5000	318847	323851	318569	57	324139	288	0	1	58
6.1.1	win	2020-04-03	22:43:13	1	1	1	USRTblock	1	USRT	61	600000	#ff0000	10pct	1	50pct	50pct	8000	324143	332151	323851	57	332409	258	0	1	59
6.1.1	win	2020-04-03	22:43:13	1	1	1	USRTblock	1	USRT	62	600000	#ff0000	10pct	1	50pct	50pct	6000	332413	338433	332151	57	338737	304	0	1	60
6.1.1	win	2020-04-03	22:43:13	1	1	1	USRTblock	1	USRT	63	600000	#ff0000	10pct	1	50pct	50pct	5000	338740	343750	338433	57	344115	365	0	1	61
6.1.1	win	2020-04-03	22:43:13	1	1	1	USRTblock	1	USRT	64	600000	#ff0000	10pct	1	50pct	50pct	8000	344118	352133	343750	57	352477	344	0	1	62
6.1.1	win	2020-04-03	22:43:13	1	1	1	USRTblock	1	USRT	65	600000	#ff0000	10pct	1	50pct	50pct	2000	352480	354497	352133	57	354830	333	0	1	63
6.1.1	win	2020-04-03	22:43:13	1	1	1	USRTblock	1	USRT	66	600000	#ff0000	10pct	1	50pct	50pct	3000	354833	357847	354497	57	358234	387	0	1	64
6.1.1	win	2020-04-03	22:43:13	1	1	1	USRTblock	1	USRT	67	600000	#ff0000	10pct	1	50pct	50pct	5000	358237	363249	357847	57	363572	323	0	1	65
6.1.1	win	2020-04-03	22:43:13	1	1	1	USRTblock	1	USRT	68	600000	#ff0000	10pct	1	50pct	50pct	3000	363576	366597	363249	57	367045	448	0	1	66
6.1.1	win	2020-04-03	22:43:13	1	1	1	USRTblock	1	USRT	69	600000	#ff0000	10pct	1	50pct	50pct	5000	367048	372063	366597	57	372359	296	0	1	67
6.1.1	win	2020-04-03	22:43:13	1	1	1	USRTblock	1	USRT	70	600000	#ff0000	10pct	1	50pct	50pct	6000	372362	378379	372063	57	378636	257	0	1	68
6.1.1	win	2020-04-03	22:43:13	1	1	1	USRTblock	1	USRT	71	600000	#ff0000	10pct	1	50pct	50pct	4000	378640	382645	378379	57	382958	313	0	1	69
6.1.1	win	2020-04-03	22:43:13	1	1	1	USRTblock	1	USRT	72	600000	#ff0000	10pct	1	50pct	50pct	4000	382962	386979	382645	57	387297	318	0	1	70
6.1.1	win	2020-04-03	22:43:13	1	1	1	USRTblock	1	USRT	73	600000	#ff0000	10pct	1	50pct	50pct	5000	387300	392311	386979	57	392586	275	0	1	71
6.1.1	win	2020-04-03	22:43:13	1	1	1	USRTblock	1	USRT	74	600000	#ff0000	10pct	1	50pct	50pct	8000	392589	400594	392311	57	400899	305	0	1	72
6.1.1	win	2020-04-03	22:43:13	1	1	1	USRTblock	1	USRT	75	600000	#ff0000	10pct	1	50pct	50pct	8000	400904	408927	400594	57	409234	307	0	1	73
6.1.1	win	2020-04-03	22:43:13	1	1	1	USRTblock	1	USRT	76	600000	#ff0000	10pct	1	50pct	50pct	8000	409237	417242	408927	57	417529	287	0	1	74
6.1.1	win	2020-04-03	22:43:13	1	1	1	USRTblock	1	USRT	77	600000	#ff0000	10pct	1	50pct	50pct	7000	417533	424541	417242	57	424833	292	0	1	75
6.1.1	win	2020-04-03	22:43:13	1	1	1	USRTblock	1	USRT	78	600000	#ff0000	10pct	1	50pct	50pct	6000	424838	430858	424541	57	431182	324	0	1	76
6.1.1	win	2020-04-03	22:43:13	1	1	1	USRTblock	1	USRT	79	600000	#ff0000	10pct	1	50pct	50pct	5000	431185	436190	430858	57	436533	343	0	1	77
6.1.1	win	2020-04-03	22:43:13	1	1	1	USRTblock	1	USRT	80	600000	#ff0000	10pct	1	50pct	50pct	2000	436536	438557	436190	57	439095	538	0	1	78
6.1.1	win	2020-04-03	22:43:13	1	1	1	USRTblock	1	USRT	81	600000	#ff0000	10pct	1	50pct	50pct	7000	439098	446106	438557	57	446545	439	0	1	79
6.1.1	win	2020-04-03	22:43:13	1	1	1	USRTblock	1	USRT	82	600000	#ff0000	10pct	1	50pct	50pct	3000	446549	449555	446106	57	449850	295	0	1	80
6.1.1	win	2020-04-03	22:43:13	1	1	1	USRTblock	1	USRT	83	600000	#ff0000	10pct	1	50pct	50pct	5000	449853	454872	449555	57	455141	269	0	1	81
6.1.1	win	2020-04-03	22:43:13	1	1	1	USRTblock	1	USRT	84	600000	#ff0000	10pct	1	50pct	50pct	3000	455144	458154	454872	57	458495	341	0	1	82
6.1.1	win	2020-04-03	22:43:13	1	1	1	USRTblock	1	USRT	85	600000	#ff0000	10pct	1	50pct	50pct	2000	458498	460504	458154	57	460834	330	0	1	83
6.1.1	win	2020-04-03	22:43:13	1	1	1	USRTblock	1	USRT	86	600000	#ff0000	10pct	1	50pct	50pct	3000	460837	463854	460504	57	464195	341	0	1	84
6.1.1	win	2020-04-03	22:43:13	1	1	1	USRTblock	1	USRT	87	600000	#ff0000	10pct	1	50pct	50pct	7000	464198	471204	463854	57	471456	252	0	1	85
6.1.1	win	2020-04-03	22:43:13	1	1	1	USRTblock	1	USRT	88	600000	#ff0000	10pct	1	50pct	50pct	5000	471459	476469	471204	57	476763	294	0	1	86
6.1.1	win	2020-04-03	22:43:13	1	1	1	USRTblock	1	USRT	89	600000	#ff0000	10pct	1	50pct	50pct	2000	476767	478786	476469	57	479107	321	0	1	87
6.1.1	win	2020-04-03	22:43:13	1	1	1	USRTblock	1	USRT	90	600000	#ff0000	10pct	1	50pct	50pct	3000	479110	482118	478786	57	482540	422	0	1	88
6.1.1	win	2020-04-03	22:43:13	1	1	1	USRTblock	1	USRT	91	600000	#ff0000	10pct	1	50pct	50pct	2000	482544	484551	482118	57	484932	381	0	1	89
6.1.1	win	2020-04-03	22:43:13	1	1	1	USRTblock	1	USRT	92	600000	#ff0000	10pct	1	50pct	50pct	5000	484935	489952	484551	57	490226	274	0	1	90
6.1.1	win	2020-04-03	22:43:13	1	1	1	USRTblock	1	USRT	93	600000	#ff0000	10pct	1	50pct	50pct	3000	490229	493234	489952	57	493530	296	0	1	91
6.1.1	win	2020-04-03	22:43:13	1	1	1	USRTblock	1	USRT	94	600000	#ff0000	10pct	1	50pct	50pct	2000	493535	495550	493234	57	495903	353	0	1	92
6.1.1	win	2020-04-03	22:43:13	1	1	1	USRTblock	1	USRT	95	600000	#ff0000	10pct	1	50pct	50pct	4000	495907	499917	495550	57	500186	269	0	1	93
6.1.1	win	2020-04-03	22:43:13	1	1	1	USRTblock	1	USRT	96	600000	#ff0000	10pct	1	50pct	50pct	8000	500190	508200	499917	57	508451	251	0	1	94
6.1.1	win	2020-04-03	22:43:13	1	1	1	USRTblock	1	USRT	97	600000	#ff0000	10pct	1	50pct	50pct	3000	508455	511466	508200	57	511779	313	0	1	95
6.1.1	win	2020-04-03	22:43:13	1	1	1	USRTblock	1	USRT	98	600000	#ff0000	10pct	1	50pct	50pct	7000	511782	518798	511466	57	519099	301	0	1	96
6.1.1	win	2020-04-03	22:43:13	1	1	1	USRTblock	1	USRT	99	600000	#ff0000	10pct	1	50pct	50pct	3000	519102	522114	518798	57	522680	566	0	1	97
6.1.1	win	2020-04-03	22:43:13	1	1	1	USRTblock	1	USRT	100	600000	#ff0000	10pct	1	50pct	50pct	3000	522683	525698	522114	57	525982	284	0	1	98
6.1.1	win	2020-04-03	22:43:13	1	1	1	USRTblock	1	USRT	101	600000	#ff0000	10pct	1	50pct	50pct	4000	525985	529997	525698	57	530276	279	0	1	99
6.1.1	win	2020-04-03	22:43:13	1	1	1	USRTblock	1	USRT	102	600000	#ff0000	10pct	1	50pct	50pct	5000	530280	535297	529997	57	535597	300	0	1	100
6.1.1	win	2020-04-03	22:43:13	1	1	1	USRTblock	1	USRT	103	600000	#ff0000	10pct	1	50pct	50pct	2000	535601	537613	535297	57	537923	310	0	1	101
6.1.1	win	2020-04-03	22:43:13	1	1	1	USRTblock	1	USRT	104	600000	#ff0000	10pct	1	50pct	50pct	8000	537927	545946	537613	57	546233	287	0	1	102
6.1.1	win	2020-04-03	22:43:13	1	1	1	USRTblock	1	USRT	105	600000	#ff0000	10pct	1	50pct	50pct	5000	546237	551245	545946	57	551796	551	0	1	103
6.1.1	win	2020-04-03	22:43:13	1	1	1	USRTblock	1	USRT	106	600000	#ff0000	10pct	1	50pct	50pct	5000	551799	556811	551245	57	557065	254	0	1	104
6.1.1	win	2020-04-03	22:43:13	1	1	1	USRTblock	1	USRT	107	600000	#ff0000	10pct	1	50pct	50pct	8000	557068	565077	556811	57	565381	304	0	1	105
6.1.1	win	2020-04-03	22:43:13	1	1	1	USRTblock	1	USRT	108	600000	#ff0000	10pct	1	50pct	50pct	6000	565385	571393	565077	57	571751	358	0	1	106
6.1.1	win	2020-04-03	22:43:13	1	1	1	USRTblock	1	USRT	109	600000	#ff0000	10pct	1	50pct	50pct	3000	571755	574759	571393	57	575136	377	0	1	107
6.1.1	win	2020-04-03	22:43:13	1	1	1	USRTblock	1	USRT	110	600000	#ff0000	10pct	1	50pct	50pct	5000	575138	580159	574759	57	580434	275	0	1	108
6.1.1	win	2020-04-03	22:43:13	1	1	1	USRTblock	1	USRT	111	600000	#ff0000	10pct	1	50pct	50pct	4000	580437	584442	580159	57	584738	296	0	1	109
6.1.1	win	2020-04-03	22:43:13	1	1	1	USRTblock	1	USRT	112	600000	#ff0000	10pct	1	50pct	50pct	6000	584742	590758	584442	57	591103	345	0	1	110
6.1.1	win	2020-04-03	22:43:13	1	1	1	USRTblock	1	USRT	113	600000	#ff0000	10pct	1	50pct	50pct	8000	591106	599123	590758	57	599410	287	0	1	111
6.1.1	win	2020-04-03	22:43:13	1	1	1	USRTblock	1	USRT	114	600000	#ff0000	10pct	1	50pct	50pct	3000	599414	602424	599123	57	602714	290	0	1	112
6.1.1	win	2020-04-03	22:43:13	1	1	1	USRTblock	1	USRT	115	600000	#ff0000	10pct	1	50pct	50pct	7000	602717	-1	602424	0	602814	0	1	2	113
