build	computer.platform	date	time	subject	group	sessionid	blockcode	blocknum	trialcode	trialnum	testduration	targetcolor	targetsize	fixed	targetx	targety	stiminterval	trialStart	shape.targetcircle.timestamp	lastCircleTimestamp	response	rt_elapsed	rt	EarlyResponse	countEarlyResponses	countResponses
6.1.1	win	2020-04-22	16:49:21	1	1	1	USRTblock	1	USRT	3	600000	#ff0000	10pct	1	50pct	50pct	3000	2650	5655	1786	57	5903	248	0	0	1
6.1.1	win	2020-04-22	16:49:21	1	1	1	USRTblock	1	USRT	4	600000	#ff0000	10pct	1	50pct	50pct	4000	5916	9922	5655	57	10188	266	0	0	2
6.1.1	win	2020-04-22	16:49:21	1	1	1	USRTblock	1	USRT	5	600000	#ff0000	10pct	1	50pct	50pct	5000	10191	15205	9922	57	15477	272	0	0	3
6.1.1	win	2020-04-22	16:49:21	1	1	1	USRTblock	1	USRT	6	600000	#ff0000	10pct	1	50pct	50pct	2000	15480	17488	15205	57	18038	550	0	0	4
6.1.1	win	2020-04-22	16:49:21	1	1	1	USRTblock	1	USRT	7	600000	#ff0000	10pct	1	50pct	50pct	5000	18041	23054	17488	57	23318	264	0	0	5
6.1.1	win	2020-04-22	16:49:21	1	1	1	USRTblock	1	USRT	8	600000	#ff0000	10pct	1	50pct	50pct	7000	23322	30337	23054	57	30614	277	0	0	6
6.1.1	win	2020-04-22	16:49:21	1	1	1	USRTblock	1	USRT	9	600000	#ff0000	10pct	1	50pct	50pct	5000	30617	35636	30337	57	35908	272	0	0	7
6.1.1	win	2020-04-22	16:49:21	1	1	1	USRTblock	1	USRT	10	600000	#ff0000	10pct	1	50pct	50pct	6000	35912	41919	35636	57	42250	331	0	0	8
6.1.1	win	2020-04-22	16:49:21	1	1	1	USRTblock	1	USRT	11	600000	#ff0000	10pct	1	50pct	50pct	8000	42253	50269	41919	57	50516	247	0	0	9
6.1.1	win	2020-04-22	16:49:21	1	1	1	USRTblock	1	USRT	12	600000	#ff0000	10pct	1	50pct	50pct	3000	50520	53534	50269	57	53927	393	0	0	10
6.1.1	win	2020-04-22	16:49:21	1	1	1	USRTblock	1	USRT	13	600000	#ff0000	10pct	1	50pct	50pct	4000	53930	57950	53534	57	58306	356	0	0	11
6.1.1	win	2020-04-22	16:49:21	1	1	1	USRTblock	1	USRT	14	600000	#ff0000	10pct	1	50pct	50pct	8000	58310	66317	57950	57	66623	306	0	0	12
6.1.1	win	2020-04-22	16:49:21	1	1	1	USRTblock	1	USRT	15	600000	#ff0000	10pct	1	50pct	50pct	5000	66626	71633	66317	57	71969	336	0	0	13
6.1.1	win	2020-04-22	16:49:21	1	1	1	USRTblock	1	USRT	16	600000	#ff0000	10pct	1	50pct	50pct	5000	71972	76982	71633	57	77337	355	0	0	14
6.1.1	win	2020-04-22	16:49:21	1	1	1	USRTblock	1	USRT	17	600000	#ff0000	10pct	1	50pct	50pct	2000	77341	79348	76982	57	79689	341	0	0	15
6.1.1	win	2020-04-22	16:49:21	1	1	1	USRTblock	1	USRT	18	600000	#ff0000	10pct	1	50pct	50pct	3000	79693	82698	79348	57	82968	270	0	0	16
6.1.1	win	2020-04-22	16:49:21	1	1	1	USRTblock	1	USRT	19	600000	#ff0000	10pct	1	50pct	50pct	4000	82972	86981	82698	57	87303	322	0	0	17
6.1.1	win	2020-04-22	16:49:21	1	1	1	USRTblock	1	USRT	20	600000	#ff0000	10pct	1	50pct	50pct	3000	87307	90314	86981	57	90631	317	0	0	18
6.1.1	win	2020-04-22	16:49:21	1	1	1	USRTblock	1	USRT	21	600000	#ff0000	10pct	1	50pct	50pct	2000	90634	92647	90314	57	92975	328	0	0	19
6.1.1	win	2020-04-22	16:49:21	1	1	1	USRTblock	1	USRT	22	600000	#ff0000	10pct	1	50pct	50pct	5000	92978	97997	92647	57	98275	278	0	0	20
6.1.1	win	2020-04-22	16:49:21	1	1	1	USRTblock	1	USRT	23	600000	#ff0000	10pct	1	50pct	50pct	2000	98279	100297	97997	57	100699	402	0	0	21
6.1.1	win	2020-04-22	16:49:21	1	1	1	USRTblock	1	USRT	24	600000	#ff0000	10pct	1	50pct	50pct	6000	100704	106712	100297	57	106991	279	0	0	22
6.1.1	win	2020-04-22	16:49:21	1	1	1	USRTblock	1	USRT	25	600000	#ff0000	10pct	1	50pct	50pct	6000	106995	113012	106712	57	113295	283	0	0	23
6.1.1	win	2020-04-22	16:49:21	1	1	1	USRTblock	1	USRT	26	600000	#ff0000	10pct	1	50pct	50pct	3000	113298	116311	113012	57	116674	363	0	0	24
6.1.1	win	2020-04-22	16:49:21	1	1	1	USRTblock	1	USRT	27	600000	#ff0000	10pct	1	50pct	50pct	5000	116678	121695	116311	57	122065	370	0	0	25
6.1.1	win	2020-04-22	16:49:21	1	1	1	USRTblock	1	USRT	28	600000	#ff0000	10pct	1	50pct	50pct	2000	122068	124077	121695	57	124437	360	0	0	26
6.1.1	win	2020-04-22	16:49:21	1	1	1	USRTblock	1	USRT	29	600000	#ff0000	10pct	1	50pct	50pct	4000	124441	128460	124077	57	128744	284	0	0	27
6.1.1	win	2020-04-22	16:49:21	1	1	1	USRTblock	1	USRT	30	600000	#ff0000	10pct	1	50pct	50pct	7000	128748	135760	128460	57	136226	466	0	0	28
6.1.1	win	2020-04-22	16:49:21	1	1	1	USRTblock	1	USRT	31	600000	#ff0000	10pct	1	50pct	50pct	7000	136229	143243	135760	57	143658	415	0	0	29
6.1.1	win	2020-04-22	16:49:21	1	1	1	USRTblock	1	USRT	32	600000	#ff0000	10pct	1	50pct	50pct	2000	143661	145675	143243	57	146005	330	0	0	30
6.1.1	win	2020-04-22	16:49:21	1	1	1	USRTblock	1	USRT	33	600000	#ff0000	10pct	1	50pct	50pct	7000	146009	153024	145675	57	153333	309	0	0	31
6.1.1	win	2020-04-22	16:49:21	1	1	1	USRTblock	1	USRT	34	600000	#ff0000	10pct	1	50pct	50pct	5000	153336	158357	153024	57	158728	371	0	0	32
6.1.1	win	2020-04-22	16:49:21	1	1	1	USRTblock	1	USRT	35	600000	#ff0000	10pct	1	50pct	50pct	6000	158732	164740	158357	57	165037	297	0	0	33
6.1.1	win	2020-04-22	16:49:21	1	1	1	USRTblock	1	USRT	36	600000	#ff0000	10pct	1	50pct	50pct	2000	165040	167056	164740	57	167551	495	0	0	34
6.1.1	win	2020-04-22	16:49:21	1	1	1	USRTblock	1	USRT	37	600000	#ff0000	10pct	1	50pct	50pct	4000	167555	171573	167056	57	171898	325	0	0	35
6.1.1	win	2020-04-22	16:49:21	1	1	1	USRTblock	1	USRT	38	600000	#ff0000	10pct	1	50pct	50pct	6000	171902	177922	171573	57	178298	376	0	0	36
6.1.1	win	2020-04-22	16:49:21	1	1	1	USRTblock	1	USRT	39	600000	#ff0000	10pct	1	50pct	50pct	5000	178302	183321	177922	57	183674	353	0	0	37
6.1.1	win	2020-04-22	16:49:21	1	1	1	USRTblock	1	USRT	40	600000	#ff0000	10pct	1	50pct	50pct	7000	183678	190687	183321	57	191010	323	0	0	38
6.1.1	win	2020-04-22	16:49:21	1	1	1	USRTblock	1	USRT	41	600000	#ff0000	10pct	1	50pct	50pct	5000	191014	196020	190687	57	196336	316	0	0	39
6.1.1	win	2020-04-22	16:49:21	1	1	1	USRTblock	1	USRT	42	600000	#ff0000	10pct	1	50pct	50pct	4000	196339	200353	196020	57	200719	366	0	0	40
6.1.1	win	2020-04-22	16:49:21	1	1	1	USRTblock	1	USRT	43	600000	#ff0000	10pct	1	50pct	50pct	2000	200723	202736	200353	57	203034	298	0	0	41
6.1.1	win	2020-04-22	16:49:21	1	1	1	USRTblock	1	USRT	44	600000	#ff0000	10pct	1	50pct	50pct	8000	203038	211052	202736	57	211297	245	0	0	42
6.1.1	win	2020-04-22	16:49:21	1	1	1	USRTblock	1	USRT	45	600000	#ff0000	10pct	1	50pct	50pct	8000	211301	219318	211052	57	219595	277	0	0	43
6.1.1	win	2020-04-22	16:49:21	1	1	1	USRTblock	1	USRT	46	600000	#ff0000	10pct	1	50pct	50pct	5000	219598	224617	219318	57	224918	301	0	0	44
6.1.1	win	2020-04-22	16:49:21	1	1	1	USRTblock	1	USRT	47	600000	#ff0000	10pct	1	50pct	50pct	7000	224921	231934	224617	57	232234	300	0	0	45
6.1.1	win	2020-04-22	16:49:21	1	1	1	USRTblock	1	USRT	48	600000	#ff0000	10pct	1	50pct	50pct	3000	232237	235250	231934	57	235523	273	0	0	46
6.1.1	win	2020-04-22	16:49:21	1	1	1	USRTblock	1	USRT	49	600000	#ff0000	10pct	1	50pct	50pct	2000	235526	237533	235250	57	237846	313	0	0	47
6.1.1	win	2020-04-22	16:49:21	1	1	1	USRTblock	1	USRT	50	600000	#ff0000	10pct	1	50pct	50pct	5000	237850	242865	237533	57	243147	282	0	0	48
6.1.1	win	2020-04-22	16:49:21	1	1	1	USRTblock	1	USRT	51	600000	#ff0000	10pct	1	50pct	50pct	2000	243150	245165	242865	57	245559	394	0	0	49
6.1.1	win	2020-04-22	16:49:21	1	1	1	USRTblock	1	USRT	52	600000	#ff0000	10pct	1	50pct	50pct	6000	245564	251582	245165	57	251868	286	0	0	50
6.1.1	win	2020-04-22	16:49:21	1	1	1	USRTblock	1	USRT	53	600000	#ff0000	10pct	1	50pct	50pct	2000	251872	253881	251582	57	254226	345	0	0	51
6.1.1	win	2020-04-22	16:49:21	1	1	1	USRTblock	1	USRT	54	600000	#ff0000	10pct	1	50pct	50pct	5000	254229	259247	253881	57	259536	289	0	0	52
6.1.1	win	2020-04-22	16:49:21	1	1	1	USRTblock	1	USRT	55	600000	#ff0000	10pct	1	50pct	50pct	4000	259539	263547	259247	57	263830	283	0	0	53
6.1.1	win	2020-04-22	16:49:21	1	1	1	USRTblock	1	USRT	56	600000	#ff0000	10pct	1	50pct	50pct	7000	263834	270847	263547	57	271144	297	0	0	54
6.1.1	win	2020-04-22	16:49:21	1	1	1	USRTblock	1	USRT	57	600000	#ff0000	10pct	1	50pct	50pct	7000	271148	278162	270847	57	278442	280	0	0	55
6.1.1	win	2020-04-22	16:49:21	1	1	1	USRTblock	1	USRT	58	600000	#ff0000	10pct	1	50pct	50pct	6000	278446	284461	278162	57	284769	308	0	0	56
6.1.1	win	2020-04-22	16:49:21	1	1	1	USRTblock	1	USRT	59	600000	#ff0000	10pct	1	50pct	50pct	6000	284772	290778	284461	57	291062	284	0	0	57
6.1.1	win	2020-04-22	16:49:21	1	1	1	USRTblock	1	USRT	60	600000	#ff0000	10pct	1	50pct	50pct	5000	291065	296077	290778	57	296381	304	0	0	58
6.1.1	win	2020-04-22	16:49:21	1	1	1	USRTblock	1	USRT	61	600000	#ff0000	10pct	1	50pct	50pct	7000	296384	303393	296077	57	303672	279	0	0	59
6.1.1	win	2020-04-22	16:49:21	1	1	1	USRTblock	1	USRT	62	600000	#ff0000	10pct	1	50pct	50pct	4000	303675	307692	303393	57	307961	269	0	0	60
6.1.1	win	2020-04-22	16:49:21	1	1	1	USRTblock	1	USRT	63	600000	#ff0000	10pct	1	50pct	50pct	6000	307964	313975	307692	57	314220	245	0	0	61
6.1.1	win	2020-04-22	16:49:21	1	1	1	USRTblock	1	USRT	64	600000	#ff0000	10pct	1	50pct	50pct	8000	314224	322241	313975	57	322672	431	0	0	62
6.1.1	win	2020-04-22	16:49:21	1	1	1	USRTblock	1	USRT	65	600000	#ff0000	10pct	1	50pct	50pct	7000	322676	329691	322241	57	329991	300	0	0	63
6.1.1	win	2020-04-22	16:49:21	1	1	1	USRTblock	1	USRT	66	600000	#ff0000	10pct	1	50pct	50pct	3000	329994	333006	329691	57	333423	417	0	0	64
6.1.1	win	2020-04-22	16:49:21	1	1	1	USRTblock	1	USRT	67	600000	#ff0000	10pct	1	50pct	50pct	3000	333427	336440	333006	57	336705	265	0	0	65
6.1.1	win	2020-04-22	16:49:21	1	1	1	USRTblock	1	USRT	68	600000	#ff0000	10pct	1	50pct	50pct	4000	336710	340722	336440	57	341045	323	0	0	66
6.1.1	win	2020-04-22	16:49:21	1	1	1	USRTblock	1	USRT	69	600000	#ff0000	10pct	1	50pct	50pct	5000	341049	346055	340722	57	346325	270	0	0	67
6.1.1	win	2020-04-22	16:49:21	1	1	1	USRTblock	1	USRT	70	600000	#ff0000	10pct	1	50pct	50pct	7000	346328	353338	346055	57	353794	456	0	0	68
6.1.1	win	2020-04-22	16:49:21	1	1	1	USRTblock	1	USRT	71	600000	#ff0000	10pct	1	50pct	50pct	5000	353799	358820	353338	57	359135	315	0	0	69
6.1.1	win	2020-04-22	16:49:21	1	1	1	USRTblock	1	USRT	72	600000	#ff0000	10pct	1	50pct	50pct	7000	359140	366153	358820	57	366429	276	0	0	70
6.1.1	win	2020-04-22	16:49:21	1	1	1	USRTblock	1	USRT	73	600000	#ff0000	10pct	1	50pct	50pct	2000	366432	368453	366153	57	368800	347	0	0	71
6.1.1	win	2020-04-22	16:49:21	1	1	1	USRTblock	1	USRT	74	600000	#ff0000	10pct	1	50pct	50pct	5000	368803	373819	368453	57	374124	305	0	0	72
6.1.1	win	2020-04-22	16:49:21	1	1	1	USRTblock	1	USRT	75	600000	#ff0000	10pct	1	50pct	50pct	6000	374127	380135	373819	57	380443	308	0	0	73
6.1.1	win	2020-04-22	16:49:21	1	1	1	USRTblock	1	USRT	76	600000	#ff0000	10pct	1	50pct	50pct	5000	380447	385451	380135	57	385709	258	0	0	74
6.1.1	win	2020-04-22	16:49:21	1	1	1	USRTblock	1	USRT	77	600000	#ff0000	10pct	1	50pct	50pct	5000	385712	390718	385451	57	391033	315	0	0	75
6.1.1	win	2020-04-22	16:49:21	1	1	1	USRTblock	1	USRT	78	600000	#ff0000	10pct	1	50pct	50pct	4000	391036	395050	390718	57	395377	327	0	0	76
6.1.1	win	2020-04-22	16:49:21	1	1	1	USRTblock	1	USRT	79	600000	#ff0000	10pct	1	50pct	50pct	5000	395381	400400	395050	57	400724	324	0	0	77
6.1.1	win	2020-04-22	16:49:21	1	1	1	USRTblock	1	USRT	80	600000	#ff0000	10pct	1	50pct	50pct	3000	400729	403749	400400	57	404072	323	0	0	78
6.1.1	win	2020-04-22	16:49:21	1	1	1	USRTblock	1	USRT	81	600000	#ff0000	10pct	1	50pct	50pct	7000	404082	411099	403749	57	411384	285	0	0	79
6.1.1	win	2020-04-22	16:49:21	1	1	1	USRTblock	1	USRT	82	600000	#ff0000	10pct	1	50pct	50pct	4000	411388	415398	411099	57	415683	285	0	0	80
6.1.1	win	2020-04-22	16:49:21	1	1	1	USRTblock	1	USRT	83	600000	#ff0000	10pct	1	50pct	50pct	5000	415687	420697	415398	57	420999	302	0	0	81
6.1.1	win	2020-04-22	16:49:21	1	1	1	USRTblock	1	USRT	84	600000	#ff0000	10pct	1	50pct	50pct	3000	421002	424013	420697	57	424387	374	0	0	82
6.1.1	win	2020-04-22	16:49:21	1	1	1	USRTblock	1	USRT	85	600000	#ff0000	10pct	1	50pct	50pct	4000	424390	428396	424013	57	428716	320	0	0	83
6.1.1	win	2020-04-22	16:49:21	1	1	1	USRTblock	1	USRT	86	600000	#ff0000	10pct	1	50pct	50pct	2000	428720	430730	428396	57	431093	363	0	0	84
6.1.1	win	2020-04-22	16:49:21	1	1	1	USRTblock	1	USRT	87	600000	#ff0000	10pct	1	50pct	50pct	6000	431097	437113	430730	57	437380	267	0	0	85
6.1.1	win	2020-04-22	16:49:21	1	1	1	USRTblock	1	USRT	88	600000	#ff0000	10pct	1	50pct	50pct	8000	437383	445395	437113	57	445670	275	0	0	86
6.1.1	win	2020-04-22	16:49:21	1	1	1	USRTblock	1	USRT	89	600000	#ff0000	10pct	1	50pct	50pct	6000	445674	451695	445395	57	451950	255	0	0	87
6.1.1	win	2020-04-22	16:49:21	1	1	1	USRTblock	1	USRT	90	600000	#ff0000	10pct	1	50pct	50pct	7000	451954	458961	451695	57	459304	343	0	0	88
6.1.1	win	2020-04-22	16:49:21	1	1	1	USRTblock	1	USRT	91	600000	#ff0000	10pct	1	50pct	50pct	8000	459308	467327	458961	57	467657	330	0	0	89
6.1.1	win	2020-04-22	16:49:21	1	1	1	USRTblock	1	USRT	92	600000	#ff0000	10pct	1	50pct	50pct	7000	467660	474676	467327	57	474944	268	0	0	90
6.1.1	win	2020-04-22	16:49:21	1	1	1	USRTblock	1	USRT	93	600000	#ff0000	10pct	1	50pct	50pct	2000	474949	476958	474676	57	477315	357	0	0	91
6.1.1	win	2020-04-22	16:49:21	1	1	1	USRTblock	1	USRT	94	600000	#ff0000	10pct	1	50pct	50pct	4000	477318	481326	476958	57	481652	326	0	0	92
6.1.1	win	2020-04-22	16:49:21	1	1	1	USRTblock	1	USRT	95	600000	#ff0000	10pct	1	50pct	50pct	5000	481655	486674	481326	57	486930	256	0	0	93
6.1.1	win	2020-04-22	16:49:21	1	1	1	USRTblock	1	USRT	96	600000	#ff0000	10pct	1	50pct	50pct	3000	486934	489941	486674	57	490238	297	0	0	94
6.1.1	win	2020-04-22	16:49:21	1	1	1	USRTblock	1	USRT	97	600000	#ff0000	10pct	1	50pct	50pct	7000	490241	497257	489941	57	497613	356	0	0	95
6.1.1	win	2020-04-22	16:49:21	1	1	1	USRTblock	1	USRT	98	600000	#ff0000	10pct	1	50pct	50pct	8000	497617	505639	497257	57	505992	353	0	0	96
6.1.1	win	2020-04-22	16:49:21	1	1	1	USRTblock	1	USRT	99	600000	#ff0000	10pct	1	50pct	50pct	2000	505996	508005	505639	57	508341	336	0	0	97
6.1.1	win	2020-04-22	16:49:21	1	1	1	USRTblock	1	USRT	100	600000	#ff0000	10pct	1	50pct	50pct	8000	508344	516355	508005	57	516629	274	0	0	98
6.1.1	win	2020-04-22	16:49:21	1	1	1	USRTblock	1	USRT	101	600000	#ff0000	10pct	1	50pct	50pct	6000	516633	522638	516355	57	522987	349	0	0	99
6.1.1	win	2020-04-22	16:49:21	1	1	1	USRTblock	1	USRT	102	600000	#ff0000	10pct	1	50pct	50pct	2000	522990	525004	522638	57	525358	354	0	0	100
6.1.1	win	2020-04-22	16:49:21	1	1	1	USRTblock	1	USRT	103	600000	#ff0000	10pct	1	50pct	50pct	3000	525362	528370	525004	57	528696	326	0	0	101
6.1.1	win	2020-04-22	16:49:21	1	1	1	USRTblock	1	USRT	104	600000	#ff0000	10pct	1	50pct	50pct	7000	528699	535720	528370	57	535985	265	0	0	102
6.1.1	win	2020-04-22	16:49:21	1	1	1	USRTblock	1	USRT	105	600000	#ff0000	10pct	1	50pct	50pct	5000	535988	541002	535720	57	541258	256	0	0	103
6.1.1	win	2020-04-22	16:49:21	1	1	1	USRTblock	1	USRT	106	600000	#ff0000	10pct	1	50pct	50pct	7000	541261	548269	541002	57	548549	280	0	0	104
6.1.1	win	2020-04-22	16:49:21	1	1	1	USRTblock	1	USRT	107	600000	#ff0000	10pct	1	50pct	50pct	7000	548553	555568	548269	57	555945	377	0	0	105
6.1.1	win	2020-04-22	16:49:21	1	1	1	USRTblock	1	USRT	108	600000	#ff0000	10pct	1	50pct	50pct	3000	555948	558967	555568	57	559343	376	0	0	106
6.1.1	win	2020-04-22	16:49:21	1	1	1	USRTblock	1	USRT	109	600000	#ff0000	10pct	1	50pct	50pct	7000	559347	566367	558967	57	566647	280	0	0	107
6.1.1	win	2020-04-22	16:49:21	1	1	1	USRTblock	1	USRT	110	600000	#ff0000	10pct	1	50pct	50pct	6000	566651	572666	566367	57	573093	427	0	0	108
6.1.1	win	2020-04-22	16:49:21	1	1	1	USRTblock	1	USRT	111	600000	#ff0000	10pct	1	50pct	50pct	2000	573096	575115	572666	57	575589	474	0	0	109
6.1.1	win	2020-04-22	16:49:21	1	1	1	USRTblock	1	USRT	112	600000	#ff0000	10pct	1	50pct	50pct	2000	575592	577598	575115	57	577906	308	0	0	110
6.1.1	win	2020-04-22	16:49:21	1	1	1	USRTblock	1	USRT	113	600000	#ff0000	10pct	1	50pct	50pct	4000	577910	581915	577598	57	582413	498	0	0	111
6.1.1	win	2020-04-22	16:49:21	1	1	1	USRTblock	1	USRT	114	600000	#ff0000	10pct	1	50pct	50pct	3000	582416	585431	581915	57	585771	340	0	0	112
6.1.1	win	2020-04-22	16:49:21	1	1	1	USRTblock	1	USRT	115	600000	#ff0000	10pct	1	50pct	50pct	5000	585774	590781	585431	57	591059	278	0	0	113
6.1.1	win	2020-04-22	16:49:21	1	1	1	USRTblock	1	USRT	116	600000	#ff0000	10pct	1	50pct	50pct	2000	591062	593080	590781	57	593389	309	0	0	114
6.1.1	win	2020-04-22	16:49:21	1	1	1	USRTblock	1	USRT	117	600000	#ff0000	10pct	1	50pct	50pct	2000	593392	595413	593080	57	595816	403	0	0	115
6.1.1	win	2020-04-22	16:49:21	1	1	1	USRTblock	1	USRT	118	600000	#ff0000	10pct	1	50pct	50pct	3000	595819	598829	595413	57	599099	270	0	0	116
6.1.1	win	2020-04-22	16:49:21	1	1	1	USRTblock	1	USRT	119	600000	#ff0000	10pct	1	50pct	50pct	5000	599103	-1	598829	0	599247	0	1	1	117
