build	computer.platform	date	time	subject	group	sessionid	blockcode	blocknum	trialcode	trialnum	testduration	targetcolor	targetsize	fixed	targetx	targety	stiminterval	trialStart	shape.targetcircle.timestamp	lastCircleTimestamp	response	rt_elapsed	rt	EarlyResponse	countEarlyResponses	countResponses
6.1.1	win	2020-04-03	13:01:56	1	1	1	USRTblock	1	USRT	3	600000	#ff0000	10pct	1	50pct	50pct	7000	3327	10338	2369	57	10628	290	0	0	1
6.1.1	win	2020-04-03	13:01:56	1	1	1	USRTblock	1	USRT	4	600000	#ff0000	10pct	1	50pct	50pct	3000	10655	13670	10338	57	13927	257	0	0	2
6.1.1	win	2020-04-03	13:01:56	1	1	1	USRTblock	1	USRT	5	600000	#ff0000	10pct	1	50pct	50pct	6000	13931	19937	13670	57	20254	317	0	0	3
6.1.1	win	2020-04-03	13:01:56	1	1	1	USRTblock	1	USRT	6	600000	#ff0000	10pct	1	50pct	50pct	3000	20258	23270	19937	57	23557	287	0	0	4
6.1.1	win	2020-04-03	13:01:56	1	1	1	USRTblock	1	USRT	7	600000	#ff0000	10pct	1	50pct	50pct	7000	23561	30569	23270	57	30825	256	0	0	5
6.1.1	win	2020-04-03	13:01:56	1	1	1	USRTblock	1	USRT	8	600000	#ff0000	10pct	1	50pct	50pct	7000	30829	37836	30569	57	38070	234	0	0	6
6.1.1	win	2020-04-03	13:01:56	1	1	1	USRTblock	1	USRT	9	600000	#ff0000	10pct	1	50pct	50pct	5000	38074	43085	37836	57	43457	372	0	0	7
6.1.1	win	2020-04-03	13:01:56	1	1	1	USRTblock	1	USRT	10	600000	#ff0000	10pct	1	50pct	50pct	6000	43460	49467	43085	57	49789	322	0	0	8
6.1.1	win	2020-04-03	13:01:56	1	1	1	USRTblock	1	USRT	11	600000	#ff0000	10pct	1	50pct	50pct	2000	49792	51800	49467	57	52157	357	0	0	9
6.1.1	win	2020-04-03	13:01:56	1	1	1	USRTblock	1	USRT	12	600000	#ff0000	10pct	1	50pct	50pct	2000	52160	54166	51800	57	54441	275	0	0	10
6.1.1	win	2020-04-03	13:01:56	1	1	1	USRTblock	1	USRT	13	600000	#ff0000	10pct	1	50pct	50pct	3000	54445	57466	54166	57	57802	336	0	0	11
6.1.1	win	2020-04-03	13:01:56	1	1	1	USRTblock	1	USRT	14	600000	#ff0000	10pct	1	50pct	50pct	8000	57805	65816	57466	57	66093	277	0	0	12
6.1.1	win	2020-04-03	13:01:56	1	1	1	USRTblock	1	USRT	15	600000	#ff0000	10pct	1	50pct	50pct	5000	66097	71115	65816	57	71453	338	0	0	13
6.1.1	win	2020-04-03	13:01:56	1	1	1	USRTblock	1	USRT	16	600000	#ff0000	10pct	1	50pct	50pct	3000	71457	74465	71115	57	74792	327	0	0	14
6.1.1	win	2020-04-03	13:01:56	1	1	1	USRTblock	1	USRT	17	600000	#ff0000	10pct	1	50pct	50pct	3000	74795	77815	74465	57	78118	303	0	0	15
6.1.1	win	2020-04-03	13:01:56	1	1	1	USRTblock	1	USRT	18	600000	#ff0000	10pct	1	50pct	50pct	4000	78121	82131	77815	57	82405	274	0	0	16
6.1.1	win	2020-04-03	13:01:56	1	1	1	USRTblock	1	USRT	19	600000	#ff0000	10pct	1	50pct	50pct	5000	82410	87430	82131	57	87701	271	0	0	17
6.1.1	win	2020-04-03	13:01:56	1	1	1	USRTblock	1	USRT	20	600000	#ff0000	10pct	1	50pct	50pct	3000	87706	90712	87430	57	90964	252	0	0	18
6.1.1	win	2020-04-03	13:01:56	1	1	1	USRTblock	1	USRT	21	600000	#ff0000	10pct	1	50pct	50pct	6000	90967	96979	90712	57	97255	276	0	0	19
6.1.1	win	2020-04-03	13:01:56	1	1	1	USRTblock	1	USRT	22	600000	#ff0000	10pct	1	50pct	50pct	6000	97258	103278	96979	57	103552	274	0	0	20
6.1.1	win	2020-04-03	13:01:56	1	1	1	USRTblock	1	USRT	23	600000	#ff0000	10pct	1	50pct	50pct	6000	103556	109561	103278	57	109847	286	0	0	21
6.1.1	win	2020-04-03	13:01:56	1	1	1	USRTblock	1	USRT	24	600000	#ff0000	10pct	1	50pct	50pct	5000	109852	114860	109561	57	115200	340	0	0	22
6.1.1	win	2020-04-03	13:01:56	1	1	1	USRTblock	1	USRT	25	600000	#ff0000	10pct	1	50pct	50pct	4000	115204	119210	114860	57	119575	365	0	0	23
6.1.1	win	2020-04-03	13:01:56	1	1	1	USRTblock	1	USRT	26	600000	#ff0000	10pct	1	50pct	50pct	6000	119579	125593	119210	57	125915	322	0	0	24
6.1.1	win	2020-04-03	13:01:56	1	1	1	USRTblock	1	USRT	27	600000	#ff0000	10pct	1	50pct	50pct	2000	125919	127926	125593	57	128384	458	0	0	25
6.1.1	win	2020-04-03	13:01:56	1	1	1	USRTblock	1	USRT	28	600000	#ff0000	10pct	1	50pct	50pct	3000	128387	131392	127926	57	131693	301	0	0	26
6.1.1	win	2020-04-03	13:01:56	1	1	1	USRTblock	1	USRT	29	600000	#ff0000	10pct	1	50pct	50pct	6000	131697	137708	131392	57	137991	283	0	0	27
6.1.1	win	2020-04-03	13:01:56	1	1	1	USRTblock	1	USRT	30	600000	#ff0000	10pct	1	50pct	50pct	6000	137994	144008	137708	57	144320	312	0	0	28
6.1.1	win	2020-04-03	13:01:56	1	1	1	USRTblock	1	USRT	31	600000	#ff0000	10pct	1	50pct	50pct	8000	144324	152340	144008	57	152593	253	0	0	29
6.1.1	win	2020-04-03	13:01:56	1	1	1	USRTblock	1	USRT	32	600000	#ff0000	10pct	1	50pct	50pct	3000	152597	155606	152340	57	155923	317	0	0	30
6.1.1	win	2020-04-03	13:01:56	1	1	1	USRTblock	1	USRT	33	600000	#ff0000	10pct	1	50pct	50pct	5000	155926	160939	155606	57	161243	304	0	0	31
6.1.1	win	2020-04-03	13:01:56	1	1	1	USRTblock	1	USRT	34	600000	#ff0000	10pct	1	50pct	50pct	3000	161247	164255	160939	57	164583	328	0	0	32
6.1.1	win	2020-04-03	13:01:56	1	1	1	USRTblock	1	USRT	35	600000	#ff0000	10pct	1	50pct	50pct	3000	164586	167605	164255	57	167892	287	0	0	33
6.1.1	win	2020-04-03	13:01:56	1	1	1	USRTblock	1	USRT	36	600000	#ff0000	10pct	1	50pct	50pct	7000	167895	174905	167605	57	175234	329	0	0	34
6.1.1	win	2020-04-03	13:01:56	1	1	1	USRTblock	1	USRT	37	600000	#ff0000	10pct	1	50pct	50pct	8000	175238	183254	174905	57	183528	274	0	0	35
6.1.1	win	2020-04-03	13:01:56	1	1	1	USRTblock	1	USRT	38	600000	#ff0000	10pct	1	50pct	50pct	4000	183532	187553	183254	57	187881	328	0	0	36
6.1.1	win	2020-04-03	13:01:56	1	1	1	USRTblock	1	USRT	39	600000	#ff0000	10pct	1	50pct	50pct	2000	187886	189903	187553	57	190286	383	0	0	37
6.1.1	win	2020-04-03	13:01:56	1	1	1	USRTblock	1	USRT	40	600000	#ff0000	10pct	1	50pct	50pct	5000	190290	195303	189903	57	195692	389	0	0	38
6.1.1	win	2020-04-03	13:01:56	1	1	1	USRTblock	1	USRT	41	600000	#ff0000	10pct	1	50pct	50pct	3000	195695	198702	195303	57	199061	359	0	0	39
6.1.1	win	2020-04-03	13:01:56	1	1	1	USRTblock	1	USRT	42	600000	#ff0000	10pct	1	50pct	50pct	3000	199065	202085	198702	57	202381	296	0	0	40
6.1.1	win	2020-04-03	13:01:56	1	1	1	USRTblock	1	USRT	43	600000	#ff0000	10pct	1	50pct	50pct	2000	202385	204402	202085	57	204714	312	0	0	41
6.1.1	win	2020-04-03	13:01:56	1	1	1	USRTblock	1	USRT	44	600000	#ff0000	10pct	1	50pct	50pct	6000	204718	210734	204402	57	211098	364	0	0	42
6.1.1	win	2020-04-03	13:01:56	1	1	1	USRTblock	1	USRT	45	600000	#ff0000	10pct	1	50pct	50pct	3000	211102	214117	210734	57	214476	359	0	0	43
6.1.1	win	2020-04-03	13:01:56	1	1	1	USRTblock	1	USRT	46	600000	#ff0000	10pct	1	50pct	50pct	7000	214479	221500	214117	57	221751	251	0	0	44
6.1.1	win	2020-04-03	13:01:56	1	1	1	USRTblock	1	USRT	47	600000	#ff0000	10pct	1	50pct	50pct	3000	221755	224766	221500	57	225076	310	0	0	45
6.1.1	win	2020-04-03	13:01:56	1	1	1	USRTblock	1	USRT	48	600000	#ff0000	10pct	1	50pct	50pct	4000	225081	229100	224766	57	229389	289	0	0	46
6.1.1	win	2020-04-03	13:01:56	1	1	1	USRTblock	1	USRT	49	600000	#ff0000	10pct	1	50pct	50pct	3000	229392	232399	229100	57	232690	291	0	0	47
6.1.1	win	2020-04-03	13:01:56	1	1	1	USRTblock	1	USRT	50	600000	#ff0000	10pct	1	50pct	50pct	6000	232694	238699	232399	57	238991	292	0	0	48
6.1.1	win	2020-04-03	13:01:56	1	1	1	USRTblock	1	USRT	51	600000	#ff0000	10pct	1	50pct	50pct	2000	238996	241014	238699	57	241533	519	0	0	49
6.1.1	win	2020-04-03	13:01:56	1	1	1	USRTblock	1	USRT	52	600000	#ff0000	10pct	1	50pct	50pct	2000	241537	243547	241014	57	244028	481	0	0	50
6.1.1	win	2020-04-03	13:01:56	1	1	1	USRTblock	1	USRT	53	600000	#ff0000	10pct	1	50pct	50pct	7000	244032	251048	243547	57	251302	254	0	0	51
6.1.1	win	2020-04-03	13:01:56	1	1	1	USRTblock	1	USRT	54	600000	#ff0000	10pct	1	50pct	50pct	3000	251305	254313	251048	57	254672	359	0	0	52
6.1.1	win	2020-04-03	13:01:56	1	1	1	USRTblock	1	USRT	55	600000	#ff0000	10pct	1	50pct	50pct	2000	254677	256696	254313	57	257068	372	0	0	53
6.1.1	win	2020-04-03	13:01:56	1	1	1	USRTblock	1	USRT	56	600000	#ff0000	10pct	1	50pct	50pct	7000	257072	264080	256696	57	264378	298	0	0	54
6.1.1	win	2020-04-03	13:01:56	1	1	1	USRTblock	1	USRT	57	600000	#ff0000	10pct	1	50pct	50pct	6000	264382	270396	264080	57	270689	293	0	0	55
6.1.1	win	2020-04-03	13:01:56	1	1	1	USRTblock	1	USRT	58	600000	#ff0000	10pct	1	50pct	50pct	7000	270692	277711	270396	57	277984	273	0	0	56
6.1.1	win	2020-04-03	13:01:56	1	1	1	USRTblock	1	USRT	59	600000	#ff0000	10pct	1	50pct	50pct	3000	277988	280994	277711	57	281293	299	0	0	57
6.1.1	win	2020-04-03	13:01:56	1	1	1	USRTblock	1	USRT	60	600000	#ff0000	10pct	1	50pct	50pct	4000	281297	285310	280994	57	285599	289	0	0	58
6.1.1	win	2020-04-03	13:01:56	1	1	1	USRTblock	1	USRT	61	600000	#ff0000	10pct	1	50pct	50pct	6000	285603	291610	285310	57	291859	249	0	0	59
6.1.1	win	2020-04-03	13:01:56	1	1	1	USRTblock	1	USRT	62	600000	#ff0000	10pct	1	50pct	50pct	6000	291862	297876	291610	57	298099	223	0	0	60
6.1.1	win	2020-04-03	13:01:56	1	1	1	USRTblock	1	USRT	63	600000	#ff0000	10pct	1	50pct	50pct	7000	298103	-1	297876	57	302837	0	1	1	61
6.1.1	win	2020-04-03	13:01:56	1	1	1	USRTblock	1	USRT	64	600000	#ff0000	10pct	1	50pct	50pct	7000	302840	309858	-1	57	310155	297	0	1	62
6.1.1	win	2020-04-03	13:01:56	1	1	1	USRTblock	1	USRT	65	600000	#ff0000	10pct	1	50pct	50pct	8000	310159	318174	309858	57	318467	293	0	1	63
6.1.1	win	2020-04-03	13:01:56	1	1	1	USRTblock	1	USRT	66	600000	#ff0000	10pct	1	50pct	50pct	3000	318471	321490	318174	57	321775	285	0	1	64
6.1.1	win	2020-04-03	13:01:56	1	1	1	USRTblock	1	USRT	67	600000	#ff0000	10pct	1	50pct	50pct	4000	321778	325789	321490	57	326153	364	0	1	65
6.1.1	win	2020-04-03	13:01:56	1	1	1	USRTblock	1	USRT	68	600000	#ff0000	10pct	1	50pct	50pct	8000	326157	334173	325789	57	334475	302	0	1	66
6.1.1	win	2020-04-03	13:01:56	1	1	1	USRTblock	1	USRT	69	600000	#ff0000	10pct	1	50pct	50pct	6000	334479	340488	334173	57	340817	329	0	1	67
6.1.1	win	2020-04-03	13:01:56	1	1	1	USRTblock	1	USRT	70	600000	#ff0000	10pct	1	50pct	50pct	2000	340821	342837	340488	57	343180	343	0	1	68
6.1.1	win	2020-04-03	13:01:56	1	1	1	USRTblock	1	USRT	71	600000	#ff0000	10pct	1	50pct	50pct	4000	343184	347204	342837	57	347502	298	0	1	69
6.1.1	win	2020-04-03	13:01:56	1	1	1	USRTblock	1	USRT	72	600000	#ff0000	10pct	1	50pct	50pct	2000	347506	349520	347204	57	349855	335	0	1	70
6.1.1	win	2020-04-03	13:01:56	1	1	1	USRTblock	1	USRT	73	600000	#ff0000	10pct	1	50pct	50pct	4000	349860	353870	349520	57	354167	297	0	1	71
6.1.1	win	2020-04-03	13:01:56	1	1	1	USRTblock	1	USRT	74	600000	#ff0000	10pct	1	50pct	50pct	7000	354170	361186	353870	57	361427	241	0	1	72
6.1.1	win	2020-04-03	13:01:56	1	1	1	USRTblock	1	USRT	75	600000	#ff0000	10pct	1	50pct	50pct	2000	361431	363452	361186	57	363772	320	0	1	73
6.1.1	win	2020-04-03	13:01:56	1	1	1	USRTblock	1	USRT	76	600000	#ff0000	10pct	1	50pct	50pct	2000	363776	365785	363452	57	366089	304	0	1	74
6.1.1	win	2020-04-03	13:01:56	1	1	1	USRTblock	1	USRT	77	600000	#ff0000	10pct	1	50pct	50pct	8000	366093	374101	365785	57	374362	261	0	1	75
6.1.1	win	2020-04-03	13:01:56	1	1	1	USRTblock	1	USRT	78	600000	#ff0000	10pct	1	50pct	50pct	8000	374366	382384	374101	57	382601	217	0	1	76
6.1.1	win	2020-04-03	13:01:56	1	1	1	USRTblock	1	USRT	79	600000	#ff0000	10pct	1	50pct	50pct	2000	382605	384616	382384	57	385185	569	0	1	77
6.1.1	win	2020-04-03	13:01:56	1	1	1	USRTblock	1	USRT	80	600000	#ff0000	10pct	1	50pct	50pct	6000	385190	391199	384616	57	391480	281	0	1	78
6.1.1	win	2020-04-03	13:01:56	1	1	1	USRTblock	1	USRT	81	600000	#ff0000	10pct	1	50pct	50pct	5000	391484	396500	391199	57	396775	275	0	1	79
6.1.1	win	2020-04-03	13:01:56	1	1	1	USRTblock	1	USRT	82	600000	#ff0000	10pct	1	50pct	50pct	5000	396779	401798	396500	57	402021	223	0	1	80
6.1.1	win	2020-04-03	13:01:56	1	1	1	USRTblock	1	USRT	83	600000	#ff0000	10pct	1	50pct	50pct	7000	402025	409032	401798	57	409299	267	0	1	81
6.1.1	win	2020-04-03	13:01:56	1	1	1	USRTblock	1	USRT	84	600000	#ff0000	10pct	1	50pct	50pct	3000	409302	412314	409032	57	412747	433	0	1	82
6.1.1	win	2020-04-03	13:01:56	1	1	1	USRTblock	1	USRT	85	600000	#ff0000	10pct	1	50pct	50pct	2000	412751	414763	412314	57	415122	359	0	1	83
6.1.1	win	2020-04-03	13:01:56	1	1	1	USRTblock	1	USRT	86	600000	#ff0000	10pct	1	50pct	50pct	3000	415125	418130	414763	57	418435	305	0	1	84
6.1.1	win	2020-04-03	13:01:56	1	1	1	USRTblock	1	USRT	87	600000	#ff0000	10pct	1	50pct	50pct	3000	418439	421446	418130	57	421730	284	0	1	85
6.1.1	win	2020-04-03	13:01:56	1	1	1	USRTblock	1	USRT	88	600000	#ff0000	10pct	1	50pct	50pct	8000	421734	429746	421446	57	429999	253	0	1	86
6.1.1	win	2020-04-03	13:01:56	1	1	1	USRTblock	1	USRT	89	600000	#ff0000	10pct	1	50pct	50pct	8000	430003	438012	429746	57	438282	270	0	1	87
6.1.1	win	2020-04-03	13:01:56	1	1	1	USRTblock	1	USRT	90	600000	#ff0000	10pct	1	50pct	50pct	3000	438285	441295	438012	57	441763	468	0	1	88
6.1.1	win	2020-04-03	13:01:56	1	1	1	USRTblock	1	USRT	91	600000	#ff0000	10pct	1	50pct	50pct	3000	441767	-1	441295	57	443192	0	1	2	89
6.1.1	win	2020-04-03	13:01:56	1	1	1	USRTblock	1	USRT	92	600000	#ff0000	10pct	1	50pct	50pct	5000	443196	448210	-1	57	448454	244	0	2	90
6.1.1	win	2020-04-03	13:01:56	1	1	1	USRTblock	1	USRT	93	600000	#ff0000	10pct	1	50pct	50pct	8000	448458	456477	448210	57	456713	236	0	2	91
6.1.1	win	2020-04-03	13:01:56	1	1	1	USRTblock	1	USRT	94	600000	#ff0000	10pct	1	50pct	50pct	3000	456717	459726	456477	57	460148	422	0	2	92
6.1.1	win	2020-04-03	13:01:56	1	1	1	USRTblock	1	USRT	95	600000	#ff0000	10pct	1	50pct	50pct	6000	460152	466158	459726	57	466490	332	0	2	93
6.1.1	win	2020-04-03	13:01:56	1	1	1	USRTblock	1	USRT	96	600000	#ff0000	10pct	1	50pct	50pct	6000	466493	472509	466158	57	472824	315	0	2	94
6.1.1	win	2020-04-03	13:01:56	1	1	1	USRTblock	1	USRT	97	600000	#ff0000	10pct	1	50pct	50pct	3000	472827	475841	472509	57	476195	354	0	2	95
6.1.1	win	2020-04-03	13:01:56	1	1	1	USRTblock	1	USRT	98	600000	#ff0000	10pct	1	50pct	50pct	8000	476198	484207	475841	57	484538	331	0	2	96
6.1.1	win	2020-04-03	13:01:56	1	1	1	USRTblock	1	USRT	99	600000	#ff0000	10pct	1	50pct	50pct	7000	484542	491557	484207	57	491863	306	0	2	97
6.1.1	win	2020-04-03	13:01:56	1	1	1	USRTblock	1	USRT	100	600000	#ff0000	10pct	1	50pct	50pct	6000	491867	497872	491557	57	498149	277	0	2	98
6.1.1	win	2020-04-03	13:01:56	1	1	1	USRTblock	1	USRT	101	600000	#ff0000	10pct	1	50pct	50pct	4000	498154	502171	497872	57	502456	285	0	2	99
6.1.1	win	2020-04-03	13:01:56	1	1	1	USRTblock	1	USRT	102	600000	#ff0000	10pct	1	50pct	50pct	2000	502460	504472	502171	57	504947	475	0	2	100
6.1.1	win	2020-04-03	13:01:56	1	1	1	USRTblock	1	USRT	103	600000	#ff0000	10pct	1	50pct	50pct	3000	504950	507971	504472	57	508282	311	0	2	101
6.1.1	win	2020-04-03	13:01:56	1	1	1	USRTblock	1	USRT	104	600000	#ff0000	10pct	1	50pct	50pct	2000	508285	510304	507971	57	510658	354	0	2	102
6.1.1	win	2020-04-03	13:01:56	1	1	1	USRTblock	1	USRT	105	600000	#ff0000	10pct	1	50pct	50pct	2000	510661	512671	510304	57	513038	367	0	2	103
6.1.1	win	2020-04-03	13:01:56	1	1	1	USRTblock	1	USRT	106	600000	#ff0000	10pct	1	50pct	50pct	4000	513042	517053	512671	57	517315	262	0	2	104
6.1.1	win	2020-04-03	13:01:56	1	1	1	USRTblock	1	USRT	107	600000	#ff0000	10pct	1	50pct	50pct	4000	517319	521336	517053	57	521583	247	0	2	105
6.1.1	win	2020-04-03	13:01:56	1	1	1	USRTblock	1	USRT	108	600000	#ff0000	10pct	1	50pct	50pct	8000	521586	529603	521336	57	529931	328	0	2	106
6.1.1	win	2020-04-03	13:01:56	1	1	1	USRTblock	1	USRT	109	600000	#ff0000	10pct	1	50pct	50pct	8000	529934	537952	529603	57	538228	276	0	2	107
6.1.1	win	2020-04-03	13:01:56	1	1	1	USRTblock	1	USRT	110	600000	#ff0000	10pct	1	50pct	50pct	3000	538231	541251	537952	57	541587	336	0	2	108
6.1.1	win	2020-04-03	13:01:56	1	1	1	USRTblock	1	USRT	111	600000	#ff0000	10pct	1	50pct	50pct	2000	541590	543601	541251	57	543895	294	0	2	109
6.1.1	win	2020-04-03	13:01:56	1	1	1	USRTblock	1	USRT	112	600000	#ff0000	10pct	1	50pct	50pct	3000	543899	546917	543601	57	547216	299	0	2	110
6.1.1	win	2020-04-03	13:01:56	1	1	1	USRTblock	1	USRT	113	600000	#ff0000	10pct	1	50pct	50pct	4000	547219	551233	546917	57	551498	265	0	2	111
6.1.1	win	2020-04-03	13:01:56	1	1	1	USRTblock	1	USRT	114	600000	#ff0000	10pct	1	50pct	50pct	5000	551501	556516	551233	57	556775	259	0	2	112
6.1.1	win	2020-04-03	13:01:56	1	1	1	USRTblock	1	USRT	115	600000	#ff0000	10pct	1	50pct	50pct	6000	556779	562799	556516	57	563051	252	0	2	113
6.1.1	win	2020-04-03	13:01:56	1	1	1	USRTblock	1	USRT	116	600000	#ff0000	10pct	1	50pct	50pct	4000	563055	567065	562799	57	567359	294	0	2	114
6.1.1	win	2020-04-03	13:01:56	1	1	1	USRTblock	1	USRT	117	600000	#ff0000	10pct	1	50pct	50pct	4000	567363	571381	567065	57	571640	259	0	2	115
6.1.1	win	2020-04-03	13:01:56	1	1	1	USRTblock	1	USRT	118	600000	#ff0000	10pct	1	50pct	50pct	6000	571643	577647	571381	57	577905	258	0	2	116
6.1.1	win	2020-04-03	13:01:56	1	1	1	USRTblock	1	USRT	119	600000	#ff0000	10pct	1	50pct	50pct	7000	577908	584914	577647	57	585237	323	0	2	117
6.1.1	win	2020-04-03	13:01:56	1	1	1	USRTblock	1	USRT	120	600000	#ff0000	10pct	1	50pct	50pct	6000	585241	591246	584914	57	591542	296	0	2	118
6.1.1	win	2020-04-03	13:01:56	1	1	1	USRTblock	1	USRT	121	600000	#ff0000	10pct	1	50pct	50pct	8000	591546	599562	591246	57	599831	269	0	2	119
6.1.1	win	2020-04-03	13:01:56	1	1	1	USRTblock	1	USRT	122	600000	#ff0000	10pct	1	50pct	50pct	4000	599835	-1	599562	0	599954	0	1	3	120
