build	computer.platform	date	time	subject	group	sessionid	blockcode	blocknum	trialcode	trialnum	testduration	targetcolor	targetsize	fixed	targetx	targety	stiminterval	trialStart	shape.targetcircle.timestamp	lastCircleTimestamp	response	rt_elapsed	rt	EarlyResponse	countEarlyResponses	countResponses
6.1.1	win	2020-04-03	16:42:21	1	1	1	USRTblock	1	USRT	3	600000	#ff0000	10pct	1	50pct	50pct	7000	4529	11551	3797	57	11804	253	0	0	1
6.1.1	win	2020-04-03	16:42:21	1	1	1	USRTblock	1	USRT	4	600000	#ff0000	10pct	1	50pct	50pct	3000	11817	14833	11551	57	15129	296	0	0	2
6.1.1	win	2020-04-03	16:42:21	1	1	1	USRTblock	1	USRT	5	600000	#ff0000	10pct	1	50pct	50pct	4000	15133	19148	14833	57	19385	237	0	0	3
6.1.1	win	2020-04-03	16:42:21	1	1	1	USRTblock	1	USRT	6	600000	#ff0000	10pct	1	50pct	50pct	3000	19388	22399	19148	57	22772	373	0	0	4
6.1.1	win	2020-04-03	16:42:21	1	1	1	USRTblock	1	USRT	7	600000	#ff0000	10pct	1	50pct	50pct	6000	22776	28781	22399	57	29026	245	0	0	5
6.1.1	win	2020-04-03	16:42:21	1	1	1	USRTblock	1	USRT	8	600000	#ff0000	10pct	1	50pct	50pct	4000	29029	33048	28781	57	33381	333	0	0	6
6.1.1	win	2020-04-03	16:42:21	1	1	1	USRTblock	1	USRT	9	600000	#ff0000	10pct	1	50pct	50pct	2000	33385	35397	33048	57	35685	288	0	0	7
6.1.1	win	2020-04-03	16:42:21	1	1	1	USRTblock	1	USRT	10	600000	#ff0000	10pct	1	50pct	50pct	6000	35689	41697	35397	57	41963	266	0	0	8
6.1.1	win	2020-04-03	16:42:21	1	1	1	USRTblock	1	USRT	11	600000	#ff0000	10pct	1	50pct	50pct	4000	41966	45979	41697	57	46276	297	0	0	9
6.1.1	win	2020-04-03	16:42:21	1	1	1	USRTblock	1	USRT	12	600000	#ff0000	10pct	1	50pct	50pct	8000	46279	54296	45979	57	54534	238	0	0	10
6.1.1	win	2020-04-03	16:42:21	1	1	1	USRTblock	1	USRT	13	600000	#ff0000	10pct	1	50pct	50pct	7000	54537	61544	54296	57	61807	263	0	0	11
6.1.1	win	2020-04-03	16:42:21	1	1	1	USRTblock	1	USRT	14	600000	#ff0000	10pct	1	50pct	50pct	6000	61810	67827	61544	57	68076	249	0	0	12
6.1.1	win	2020-04-03	16:42:21	1	1	1	USRTblock	1	USRT	15	600000	#ff0000	10pct	1	50pct	50pct	5000	68080	73094	67827	57	73306	212	0	0	13
6.1.1	win	2020-04-03	16:42:21	1	1	1	USRTblock	1	USRT	16	600000	#ff0000	10pct	1	50pct	50pct	7000	73309	80326	73094	57	80568	242	0	0	14
6.1.1	win	2020-04-03	16:42:21	1	1	1	USRTblock	1	USRT	17	600000	#ff0000	10pct	1	50pct	50pct	5000	80572	85593	80326	57	85837	244	0	0	15
6.1.1	win	2020-04-03	16:42:21	1	1	1	USRTblock	1	USRT	18	600000	#ff0000	10pct	1	50pct	50pct	5000	85841	90858	85593	57	91113	255	0	0	16
6.1.1	win	2020-04-03	16:42:21	1	1	1	USRTblock	1	USRT	19	600000	#ff0000	10pct	1	50pct	50pct	6000	91117	97124	90858	57	97408	284	0	0	17
6.1.1	win	2020-04-03	16:42:21	1	1	1	USRTblock	1	USRT	20	600000	#ff0000	10pct	1	50pct	50pct	6000	97412	103424	97124	57	103755	331	0	0	18
6.1.1	win	2020-04-03	16:42:21	1	1	1	USRTblock	1	USRT	21	600000	#ff0000	10pct	1	50pct	50pct	2000	103759	105773	103424	57	106099	326	0	0	19
6.1.1	win	2020-04-03	16:42:21	1	1	1	USRTblock	1	USRT	22	600000	#ff0000	10pct	1	50pct	50pct	7000	106103	113123	105773	57	113426	303	0	0	20
6.1.1	win	2020-04-03	16:42:21	1	1	1	USRTblock	1	USRT	23	600000	#ff0000	10pct	1	50pct	50pct	5000	113430	118438	113123	57	118713	275	0	0	21
6.1.1	win	2020-04-03	16:42:21	1	1	1	USRTblock	1	USRT	24	600000	#ff0000	10pct	1	50pct	50pct	7000	118718	125738	118438	57	126021	283	0	0	22
6.1.1	win	2020-04-03	16:42:21	1	1	1	USRTblock	1	USRT	25	600000	#ff0000	10pct	1	50pct	50pct	6000	126024	132037	125738	57	132326	289	0	0	23
6.1.1	win	2020-04-03	16:42:21	1	1	1	USRTblock	1	USRT	26	600000	#ff0000	10pct	1	50pct	50pct	2000	132330	134337	132037	57	134773	436	0	0	24
6.1.1	win	2020-04-03	16:42:21	1	1	1	USRTblock	1	USRT	27	600000	#ff0000	10pct	1	50pct	50pct	7000	134777	141787	134337	57	142042	255	0	0	25
6.1.1	win	2020-04-03	16:42:21	1	1	1	USRTblock	1	USRT	28	600000	#ff0000	10pct	1	50pct	50pct	4000	142046	146053	141787	57	146334	281	0	0	26
6.1.1	win	2020-04-03	16:42:21	1	1	1	USRTblock	1	USRT	29	600000	#ff0000	10pct	1	50pct	50pct	3000	146338	149352	146053	57	149650	298	0	0	27
6.1.1	win	2020-04-03	16:42:21	1	1	1	USRTblock	1	USRT	30	600000	#ff0000	10pct	1	50pct	50pct	5000	149653	154668	149352	57	154927	259	0	0	28
6.1.1	win	2020-04-03	16:42:21	1	1	1	USRTblock	1	USRT	31	600000	#ff0000	10pct	1	50pct	50pct	3000	154930	157951	154668	57	158262	311	0	0	29
6.1.1	win	2020-04-03	16:42:21	1	1	1	USRTblock	1	USRT	32	600000	#ff0000	10pct	1	50pct	50pct	4000	158265	162284	157951	57	162534	250	0	0	30
6.1.1	win	2020-04-03	16:42:21	1	1	1	USRTblock	1	USRT	33	600000	#ff0000	10pct	1	50pct	50pct	4000	162539	166551	162284	57	166794	243	0	0	31
6.1.1	win	2020-04-03	16:42:21	1	1	1	USRTblock	1	USRT	34	600000	#ff0000	10pct	1	50pct	50pct	3000	166799	169817	166551	57	170078	261	0	0	32
6.1.1	win	2020-04-03	16:42:21	1	1	1	USRTblock	1	USRT	35	600000	#ff0000	10pct	1	50pct	50pct	4000	170081	174100	169817	57	174434	334	0	0	33
6.1.1	win	2020-04-03	16:42:21	1	1	1	USRTblock	1	USRT	36	600000	#ff0000	10pct	1	50pct	50pct	5000	174438	179449	174100	57	179715	266	0	0	34
6.1.1	win	2020-04-03	16:42:21	1	1	1	USRTblock	1	USRT	37	600000	#ff0000	10pct	1	50pct	50pct	5000	179719	184732	179449	57	184988	256	0	0	35
6.1.1	win	2020-04-03	16:42:21	1	1	1	USRTblock	1	USRT	38	600000	#ff0000	10pct	1	50pct	50pct	6000	184991	190998	184732	57	191255	257	0	0	36
6.1.1	win	2020-04-03	16:42:21	1	1	1	USRTblock	1	USRT	39	600000	#ff0000	10pct	1	50pct	50pct	8000	191258	199264	190998	57	199525	261	0	0	37
6.1.1	win	2020-04-03	16:42:21	1	1	1	USRTblock	1	USRT	40	600000	#ff0000	10pct	1	50pct	50pct	5000	199528	204546	199264	57	204832	286	0	0	38
6.1.1	win	2020-04-03	16:42:21	1	1	1	USRTblock	1	USRT	41	600000	#ff0000	10pct	1	50pct	50pct	3000	204837	207846	204546	57	208301	455	0	0	39
6.1.1	win	2020-04-03	16:42:21	1	1	1	USRTblock	1	USRT	42	600000	#ff0000	10pct	1	50pct	50pct	5000	208304	213313	207846	57	213560	247	0	0	40
6.1.1	win	2020-04-03	16:42:21	1	1	1	USRTblock	1	USRT	43	600000	#ff0000	10pct	1	50pct	50pct	7000	213563	220579	213313	57	220866	287	0	0	41
6.1.1	win	2020-04-03	16:42:21	1	1	1	USRTblock	1	USRT	44	600000	#ff0000	10pct	1	50pct	50pct	6000	220870	226878	220579	57	227118	240	0	0	42
6.1.1	win	2020-04-03	16:42:21	1	1	1	USRTblock	1	USRT	45	600000	#ff0000	10pct	1	50pct	50pct	4000	227122	231127	226878	57	231393	266	0	0	43
6.1.1	win	2020-04-03	16:42:21	1	1	1	USRTblock	1	USRT	46	600000	#ff0000	10pct	1	50pct	50pct	2000	231396	233410	231127	57	233734	324	0	0	44
6.1.1	win	2020-04-03	16:42:21	1	1	1	USRTblock	1	USRT	47	600000	#ff0000	10pct	1	50pct	50pct	5000	233737	238743	233410	57	238987	244	0	0	45
6.1.1	win	2020-04-03	16:42:21	1	1	1	USRTblock	1	USRT	48	600000	#ff0000	10pct	1	50pct	50pct	8000	238990	247009	238743	57	247287	278	0	0	46
6.1.1	win	2020-04-03	16:42:21	1	1	1	USRTblock	1	USRT	49	600000	#ff0000	10pct	1	50pct	50pct	8000	247291	255309	247009	57	255562	253	0	0	47
6.1.1	win	2020-04-03	16:42:21	1	1	1	USRTblock	1	USRT	50	600000	#ff0000	10pct	1	50pct	50pct	5000	255565	260575	255309	57	260854	279	0	0	48
6.1.1	win	2020-04-03	16:42:21	1	1	1	USRTblock	1	USRT	51	600000	#ff0000	10pct	1	50pct	50pct	3000	260858	263874	260575	57	264153	279	0	0	49
6.1.1	win	2020-04-03	16:42:21	1	1	1	USRTblock	1	USRT	52	600000	#ff0000	10pct	1	50pct	50pct	4000	264158	268173	263874	57	268457	284	0	0	50
6.1.1	win	2020-04-03	16:42:21	1	1	1	USRTblock	1	USRT	53	600000	#ff0000	10pct	1	50pct	50pct	5000	268460	273474	268173	57	273756	282	0	0	51
6.1.1	win	2020-04-03	16:42:21	1	1	1	USRTblock	1	USRT	54	600000	#ff0000	10pct	1	50pct	50pct	2000	273760	275773	273474	57	276324	551	0	0	52
6.1.1	win	2020-04-03	16:42:21	1	1	1	USRTblock	1	USRT	55	600000	#ff0000	10pct	1	50pct	50pct	5000	276328	281340	275773	57	281613	273	0	0	53
6.1.1	win	2020-04-03	16:42:21	1	1	1	USRTblock	1	USRT	56	600000	#ff0000	10pct	1	50pct	50pct	6000	281617	287622	281340	57	287918	296	0	0	54
6.1.1	win	2020-04-03	16:42:21	1	1	1	USRTblock	1	USRT	57	600000	#ff0000	10pct	1	50pct	50pct	5000	287921	292938	287622	57	293197	259	0	0	55
6.1.1	win	2020-04-03	16:42:21	1	1	1	USRTblock	1	USRT	58	600000	#ff0000	10pct	1	50pct	50pct	5000	293200	298221	292938	57	298468	247	0	0	56
6.1.1	win	2020-04-03	16:42:21	1	1	1	USRTblock	1	USRT	59	600000	#ff0000	10pct	1	50pct	50pct	3000	298471	301486	298221	57	301838	352	0	0	57
6.1.1	win	2020-04-03	16:42:21	1	1	1	USRTblock	1	USRT	60	600000	#ff0000	10pct	1	50pct	50pct	6000	301841	307853	301486	57	308077	224	0	0	58
6.1.1	win	2020-04-03	16:42:21	1	1	1	USRTblock	1	USRT	61	600000	#ff0000	10pct	1	50pct	50pct	6000	308081	314086	307853	57	314345	259	0	0	59
6.1.1	win	2020-04-03	16:42:21	1	1	1	USRTblock	1	USRT	62	600000	#ff0000	10pct	1	50pct	50pct	8000	314349	322369	314086	57	322787	418	0	0	60
6.1.1	win	2020-04-03	16:42:21	1	1	1	USRTblock	1	USRT	63	600000	#ff0000	10pct	1	50pct	50pct	6000	322791	328801	322369	57	329058	257	0	0	61
6.1.1	win	2020-04-03	16:42:21	1	1	1	USRTblock	1	USRT	64	600000	#ff0000	10pct	1	50pct	50pct	6000	329061	335067	328801	57	335300	233	0	0	62
6.1.1	win	2020-04-03	16:42:21	1	1	1	USRTblock	1	USRT	65	600000	#ff0000	10pct	1	50pct	50pct	3000	335303	338316	335067	57	338619	303	0	0	63
6.1.1	win	2020-04-03	16:42:21	1	1	1	USRTblock	1	USRT	66	600000	#ff0000	10pct	1	50pct	50pct	8000	338622	346633	338316	57	346888	255	0	0	64
6.1.1	win	2020-04-03	16:42:21	1	1	1	USRTblock	1	USRT	67	600000	#ff0000	10pct	1	50pct	50pct	2000	346892	348915	346633	57	349233	318	0	0	65
6.1.1	win	2020-04-03	16:42:21	1	1	1	USRTblock	1	USRT	68	600000	#ff0000	10pct	1	50pct	50pct	3000	349237	352249	348915	57	352539	290	0	0	66
6.1.1	win	2020-04-03	16:42:21	1	1	1	USRTblock	1	USRT	69	600000	#ff0000	10pct	1	50pct	50pct	6000	352542	358548	352249	57	358836	288	0	0	67
6.1.1	win	2020-04-03	16:42:21	1	1	1	USRTblock	1	USRT	70	600000	#ff0000	10pct	1	50pct	50pct	3000	358840	361847	358548	57	362134	287	0	0	68
6.1.1	win	2020-04-03	16:42:21	1	1	1	USRTblock	1	USRT	71	600000	#ff0000	10pct	1	50pct	50pct	4000	362139	366147	361847	57	366443	296	0	0	69
6.1.1	win	2020-04-03	16:42:21	1	1	1	USRTblock	1	USRT	72	600000	#ff0000	10pct	1	50pct	50pct	5000	366447	371464	366147	57	371740	276	0	0	70
6.1.1	win	2020-04-03	16:42:21	1	1	1	USRTblock	1	USRT	73	600000	#ff0000	10pct	1	50pct	50pct	5000	371744	376762	371464	57	377014	252	0	0	71
6.1.1	win	2020-04-03	16:42:21	1	1	1	USRTblock	1	USRT	74	600000	#ff0000	10pct	1	50pct	50pct	4000	377017	381028	376762	57	381312	284	0	0	72
6.1.1	win	2020-04-03	16:42:21	1	1	1	USRTblock	1	USRT	75	600000	#ff0000	10pct	1	50pct	50pct	7000	381316	388328	381028	57	388568	240	0	0	73
6.1.1	win	2020-04-03	16:42:21	1	1	1	USRTblock	1	USRT	76	600000	#ff0000	10pct	1	50pct	50pct	7000	388572	395578	388328	57	395836	258	0	0	74
6.1.1	win	2020-04-03	16:42:21	1	1	1	USRTblock	1	USRT	77	600000	#ff0000	10pct	1	50pct	50pct	4000	395840	399861	395578	57	400137	276	0	0	75
6.1.1	win	2020-04-03	16:42:21	1	1	1	USRTblock	1	USRT	78	600000	#ff0000	10pct	1	50pct	50pct	5000	400140	405160	399861	57	405424	264	0	0	76
6.1.1	win	2020-04-03	16:42:21	1	1	1	USRTblock	1	USRT	79	600000	#ff0000	10pct	1	50pct	50pct	2000	405428	407443	405160	57	407837	394	0	0	77
6.1.1	win	2020-04-03	16:42:21	1	1	1	USRTblock	1	USRT	80	600000	#ff0000	10pct	1	50pct	50pct	4000	407841	411859	407443	57	412091	232	0	0	78
6.1.1	win	2020-04-03	16:42:21	1	1	1	USRTblock	1	USRT	81	600000	#ff0000	10pct	1	50pct	50pct	7000	412095	419109	411859	57	419384	275	0	0	79
6.1.1	win	2020-04-03	16:42:21	1	1	1	USRTblock	1	USRT	82	600000	#ff0000	10pct	1	50pct	50pct	6000	419387	425408	419109	57	425658	250	0	0	80
6.1.1	win	2020-04-03	16:42:21	1	1	1	USRTblock	1	USRT	83	600000	#ff0000	10pct	1	50pct	50pct	4000	425661	429674	425408	57	429987	313	0	0	81
6.1.1	win	2020-04-03	16:42:21	1	1	1	USRTblock	1	USRT	84	600000	#ff0000	10pct	1	50pct	50pct	7000	429991	437008	429674	57	437291	283	0	0	82
6.1.1	win	2020-04-03	16:42:21	1	1	1	USRTblock	1	USRT	85	600000	#ff0000	10pct	1	50pct	50pct	8000	437295	445307	437008	57	445550	243	0	0	83
6.1.1	win	2020-04-03	16:42:21	1	1	1	USRTblock	1	USRT	86	600000	#ff0000	10pct	1	50pct	50pct	2000	445554	447572	445307	57	448040	468	0	0	84
6.1.1	win	2020-04-03	16:42:21	1	1	1	USRTblock	1	USRT	87	600000	#ff0000	10pct	1	50pct	50pct	5000	448043	453055	447572	57	453311	256	0	0	85
6.1.1	win	2020-04-03	16:42:21	1	1	1	USRTblock	1	USRT	88	600000	#ff0000	10pct	1	50pct	50pct	3000	453315	456321	453055	57	456600	279	0	0	86
6.1.1	win	2020-04-03	16:42:21	1	1	1	USRTblock	1	USRT	89	600000	#ff0000	10pct	1	50pct	50pct	3000	456604	459621	456321	57	459921	300	0	0	87
6.1.1	win	2020-04-03	16:42:21	1	1	1	USRTblock	1	USRT	90	600000	#ff0000	10pct	1	50pct	50pct	7000	459924	466937	459621	57	467180	243	0	0	88
6.1.1	win	2020-04-03	16:42:21	1	1	1	USRTblock	1	USRT	91	600000	#ff0000	10pct	1	50pct	50pct	7000	467184	474203	466937	57	474452	249	0	0	89
6.1.1	win	2020-04-03	16:42:21	1	1	1	USRTblock	1	USRT	92	600000	#ff0000	10pct	1	50pct	50pct	7000	474457	481469	474203	57	481711	242	0	0	90
6.1.1	win	2020-04-03	16:42:21	1	1	1	USRTblock	1	USRT	93	600000	#ff0000	10pct	1	50pct	50pct	3000	481715	484736	481469	57	484996	260	0	0	91
6.1.1	win	2020-04-03	16:42:21	1	1	1	USRTblock	1	USRT	94	600000	#ff0000	10pct	1	50pct	50pct	5000	485000	-1	484736	57	489654	0	1	1	92
6.1.1	win	2020-04-03	16:42:21	1	1	1	USRTblock	1	USRT	95	600000	#ff0000	10pct	1	50pct	50pct	3000	489657	492667	-1	57	492970	303	0	1	93
6.1.1	win	2020-04-03	16:42:21	1	1	1	USRTblock	1	USRT	96	600000	#ff0000	10pct	1	50pct	50pct	6000	492973	498984	492667	57	499217	233	0	1	94
6.1.1	win	2020-04-03	16:42:21	1	1	1	USRTblock	1	USRT	97	600000	#ff0000	10pct	1	50pct	50pct	5000	499221	504233	498984	57	504494	261	0	1	95
6.1.1	win	2020-04-03	16:42:21	1	1	1	USRTblock	1	USRT	98	600000	#ff0000	10pct	1	50pct	50pct	7000	504498	511515	504233	57	511763	248	0	1	96
6.1.1	win	2020-04-03	16:42:21	1	1	1	USRTblock	1	USRT	99	600000	#ff0000	10pct	1	50pct	50pct	8000	511766	519782	511515	57	520043	261	0	1	97
6.1.1	win	2020-04-03	16:42:21	1	1	1	USRTblock	1	USRT	100	600000	#ff0000	10pct	1	50pct	50pct	5000	520048	525065	519782	57	525320	255	0	1	98
6.1.1	win	2020-04-03	16:42:21	1	1	1	USRTblock	1	USRT	101	600000	#ff0000	10pct	1	50pct	50pct	4000	525324	529331	525065	57	529612	281	0	1	99
6.1.1	win	2020-04-03	16:42:21	1	1	1	USRTblock	1	USRT	102	600000	#ff0000	10pct	1	50pct	50pct	3000	529616	532631	529331	57	533023	392	0	1	100
6.1.1	win	2020-04-03	16:42:21	1	1	1	USRTblock	1	USRT	103	600000	#ff0000	10pct	1	50pct	50pct	3000	533026	536046	532631	57	536338	292	0	1	101
6.1.1	win	2020-04-03	16:42:21	1	1	1	USRTblock	1	USRT	104	600000	#ff0000	10pct	1	50pct	50pct	3000	536341	539346	536046	57	539590	244	0	1	102
6.1.1	win	2020-04-03	16:42:21	1	1	1	USRTblock	1	USRT	105	600000	#ff0000	10pct	1	50pct	50pct	2000	539593	541612	539346	57	541925	313	0	1	103
6.1.1	win	2020-04-03	16:42:21	1	1	1	USRTblock	1	USRT	106	600000	#ff0000	10pct	1	50pct	50pct	8000	541928	549946	541612	57	550238	292	0	1	104
6.1.1	win	2020-04-03	16:42:21	1	1	1	USRTblock	1	USRT	107	600000	#ff0000	10pct	1	50pct	50pct	8000	550242	558262	549946	57	558515	253	0	1	105
6.1.1	win	2020-04-03	16:42:21	1	1	1	USRTblock	1	USRT	108	600000	#ff0000	10pct	1	50pct	50pct	7000	558519	565527	558262	57	565774	247	0	1	106
6.1.1	win	2020-04-03	16:42:21	1	1	1	USRTblock	1	USRT	109	600000	#ff0000	10pct	1	50pct	50pct	2000	565777	567793	565527	57	568140	347	0	1	107
6.1.1	win	2020-04-03	16:42:21	1	1	1	USRTblock	1	USRT	110	600000	#ff0000	10pct	1	50pct	50pct	3000	568143	571160	567793	57	571416	256	0	1	108
6.1.1	win	2020-04-03	16:42:21	1	1	1	USRTblock	1	USRT	111	600000	#ff0000	10pct	1	50pct	50pct	2000	571420	573426	571160	57	573739	313	0	1	109
6.1.1	win	2020-04-03	16:42:21	1	1	1	USRTblock	1	USRT	112	600000	#ff0000	10pct	1	50pct	50pct	3000	573743	576759	573426	57	577055	296	0	1	110
6.1.1	win	2020-04-03	16:42:21	1	1	1	USRTblock	1	USRT	113	600000	#ff0000	10pct	1	50pct	50pct	6000	577058	583076	576759	57	583340	264	0	1	111
6.1.1	win	2020-04-03	16:42:21	1	1	1	USRTblock	1	USRT	114	600000	#ff0000	10pct	1	50pct	50pct	2000	583344	585358	583076	57	585886	528	0	1	112
6.1.1	win	2020-04-03	16:42:21	1	1	1	USRTblock	1	USRT	115	600000	#ff0000	10pct	1	50pct	50pct	5000	585891	590908	585358	57	591193	285	0	1	113
6.1.1	win	2020-04-03	16:42:21	1	1	1	USRTblock	1	USRT	116	600000	#ff0000	10pct	1	50pct	50pct	5000	591197	596207	590908	57	596503	296	0	1	114
6.1.1	win	2020-04-03	16:42:21	1	1	1	USRTblock	1	USRT	117	600000	#ff0000	10pct	1	50pct	50pct	2000	596507	598523	596207	57	598899	376	0	1	115
6.1.1	win	2020-04-03	16:42:21	1	1	1	USRTblock	1	USRT	118	600000	#ff0000	10pct	1	50pct	50pct	6000	598902	-1	598523	0	598952	0	1	2	116
