build	computer.platform	date	time	subject	group	sessionid	blockcode	blocknum	trialcode	trialnum	testduration	targetcolor	targetsize	fixed	targetx	targety	stiminterval	trialStart	shape.targetcircle.timestamp	lastCircleTimestamp	response	rt_elapsed	rt	EarlyResponse	countEarlyResponses	countResponses
6.1.1	win	2020-04-03	13:21:48	1	1	1	USRTblock	1	USRT	3	600000	#ff0000	10pct	1	50pct	50pct	3000	2575	5594	1724	57	5846	252	0	0	1
6.1.1	win	2020-04-03	13:21:48	1	1	1	USRTblock	1	USRT	4	600000	#ff0000	10pct	1	50pct	50pct	8000	5860	13877	5594	57	14123	246	0	0	2
6.1.1	win	2020-04-03	13:21:48	1	1	1	USRTblock	1	USRT	5	600000	#ff0000	10pct	1	50pct	50pct	7000	14126	21143	13877	57	21367	224	0	0	3
6.1.1	win	2020-04-03	13:21:48	1	1	1	USRTblock	1	USRT	6	600000	#ff0000	10pct	1	50pct	50pct	6000	21371	27375	21143	57	27653	278	0	0	4
6.1.1	win	2020-04-03	13:21:48	1	1	1	USRTblock	1	USRT	7	600000	#ff0000	10pct	1	50pct	50pct	6000	27657	33675	27375	57	33946	271	0	0	5
6.1.1	win	2020-04-03	13:21:48	1	1	1	USRTblock	1	USRT	8	600000	#ff0000	10pct	1	50pct	50pct	2000	33950	35957	33675	57	36276	319	0	0	6
6.1.1	win	2020-04-03	13:21:48	1	1	1	USRTblock	1	USRT	9	600000	#ff0000	10pct	1	50pct	50pct	3000	36279	39291	35957	57	39610	319	0	0	7
6.1.1	win	2020-04-03	13:21:48	1	1	1	USRTblock	1	USRT	10	600000	#ff0000	10pct	1	50pct	50pct	4000	39615	43623	39291	57	43941	318	0	0	8
6.1.1	win	2020-04-03	13:21:48	1	1	1	USRTblock	1	USRT	11	600000	#ff0000	10pct	1	50pct	50pct	2000	43944	45957	43623	57	46255	298	0	0	9
6.1.1	win	2020-04-03	13:21:48	1	1	1	USRTblock	1	USRT	12	600000	#ff0000	10pct	1	50pct	50pct	6000	46259	52273	45957	57	52524	251	0	0	10
6.1.1	win	2020-04-03	13:21:48	1	1	1	USRTblock	1	USRT	13	600000	#ff0000	10pct	1	50pct	50pct	6000	52527	58538	52273	57	58810	272	0	0	11
6.1.1	win	2020-04-03	13:21:48	1	1	1	USRTblock	1	USRT	14	600000	#ff0000	10pct	1	50pct	50pct	8000	58813	66821	58538	57	67139	318	0	0	12
6.1.1	win	2020-04-03	13:21:48	1	1	1	USRTblock	1	USRT	15	600000	#ff0000	10pct	1	50pct	50pct	6000	67143	73154	66821	57	73473	319	0	0	13
6.1.1	win	2020-04-03	13:21:48	1	1	1	USRTblock	1	USRT	16	600000	#ff0000	10pct	1	50pct	50pct	8000	73478	81487	73154	57	81835	348	0	0	14
6.1.1	win	2020-04-03	13:21:48	1	1	1	USRTblock	1	USRT	17	600000	#ff0000	10pct	1	50pct	50pct	7000	81839	88852	81487	57	89186	334	0	0	15
6.1.1	win	2020-04-03	13:21:48	1	1	1	USRTblock	1	USRT	18	600000	#ff0000	10pct	1	50pct	50pct	8000	89189	97202	88852	57	97531	329	0	0	16
6.1.1	win	2020-04-03	13:21:48	1	1	1	USRTblock	1	USRT	19	600000	#ff0000	10pct	1	50pct	50pct	6000	97535	103551	97202	57	103931	380	0	0	17
6.1.1	win	2020-04-03	13:21:48	1	1	1	USRTblock	1	USRT	20	600000	#ff0000	10pct	1	50pct	50pct	3000	103935	106951	103551	57	107492	541	0	0	18
6.1.1	win	2020-04-03	13:21:48	1	1	1	USRTblock	1	USRT	21	600000	#ff0000	10pct	1	50pct	50pct	6000	107496	113517	106951	57	113752	235	0	0	19
6.1.1	win	2020-04-03	13:21:48	1	1	1	USRTblock	1	USRT	22	600000	#ff0000	10pct	1	50pct	50pct	4000	113755	117766	113517	57	118071	305	0	0	20
6.1.1	win	2020-04-03	13:21:48	1	1	1	USRTblock	1	USRT	23	600000	#ff0000	10pct	1	50pct	50pct	5000	118075	123082	117766	57	123419	337	0	0	21
6.1.1	win	2020-04-03	13:21:48	1	1	1	USRTblock	1	USRT	24	600000	#ff0000	10pct	1	50pct	50pct	8000	123422	131431	123082	57	131792	361	0	0	22
6.1.1	win	2020-04-03	13:21:48	1	1	1	USRTblock	1	USRT	25	600000	#ff0000	10pct	1	50pct	50pct	8000	131796	139814	131431	57	140107	293	0	0	23
6.1.1	win	2020-04-03	13:21:48	1	1	1	USRTblock	1	USRT	26	600000	#ff0000	10pct	1	50pct	50pct	6000	140111	146130	139814	57	146466	336	0	0	24
6.1.1	win	2020-04-03	13:21:48	1	1	1	USRTblock	1	USRT	27	600000	#ff0000	10pct	1	50pct	50pct	7000	146469	153480	146130	57	153757	277	0	0	25
6.1.1	win	2020-04-03	13:21:48	1	1	1	USRTblock	1	USRT	28	600000	#ff0000	10pct	1	50pct	50pct	7000	153761	160779	153480	57	161062	283	0	0	26
6.1.1	win	2020-04-03	13:21:48	1	1	1	USRTblock	1	USRT	29	600000	#ff0000	10pct	1	50pct	50pct	2000	161066	163078	160779	57	163452	374	0	0	27
6.1.1	win	2020-04-03	13:21:48	1	1	1	USRTblock	1	USRT	30	600000	#ff0000	10pct	1	50pct	50pct	5000	163456	168461	163078	57	168854	393	0	0	28
6.1.1	win	2020-04-03	13:21:48	1	1	1	USRTblock	1	USRT	31	600000	#ff0000	10pct	1	50pct	50pct	6000	168858	174877	168461	57	175157	280	0	0	29
6.1.1	win	2020-04-03	13:21:48	1	1	1	USRTblock	1	USRT	32	600000	#ff0000	10pct	1	50pct	50pct	3000	175161	178176	174877	57	178523	347	0	0	30
6.1.1	win	2020-04-03	13:21:48	1	1	1	USRTblock	1	USRT	33	600000	#ff0000	10pct	1	50pct	50pct	5000	178526	183543	178176	57	183824	281	0	0	31
6.1.1	win	2020-04-03	13:21:48	1	1	1	USRTblock	1	USRT	34	600000	#ff0000	10pct	1	50pct	50pct	8000	183828	191842	183543	57	192155	313	0	0	32
6.1.1	win	2020-04-03	13:21:48	1	1	1	USRTblock	1	USRT	35	600000	#ff0000	10pct	1	50pct	50pct	8000	192159	200175	191842	57	200454	279	0	0	33
6.1.1	win	2020-04-03	13:21:48	1	1	1	USRTblock	1	USRT	36	600000	#ff0000	10pct	1	50pct	50pct	6000	200457	206474	200175	57	206777	303	0	0	34
6.1.1	win	2020-04-03	13:21:48	1	1	1	USRTblock	1	USRT	37	600000	#ff0000	10pct	1	50pct	50pct	5000	206780	211790	206474	57	212118	328	0	0	35
6.1.1	win	2020-04-03	13:21:48	1	1	1	USRTblock	1	USRT	38	600000	#ff0000	10pct	1	50pct	50pct	2000	212122	214139	211790	57	214460	321	0	0	36
6.1.1	win	2020-04-03	13:21:48	1	1	1	USRTblock	1	USRT	39	600000	#ff0000	10pct	1	50pct	50pct	6000	214464	-1	214139	57	218740	0	1	1	37
6.1.1	win	2020-04-03	13:21:48	1	1	1	USRTblock	1	USRT	40	600000	#ff0000	10pct	1	50pct	50pct	3000	218744	221756	-1	57	222079	323	0	1	38
6.1.1	win	2020-04-03	13:21:48	1	1	1	USRTblock	1	USRT	41	600000	#ff0000	10pct	1	50pct	50pct	3000	222082	225089	221756	57	225546	457	0	1	39
6.1.1	win	2020-04-03	13:21:48	1	1	1	USRTblock	1	USRT	42	600000	#ff0000	10pct	1	50pct	50pct	2000	225549	227555	225089	57	227853	298	0	1	40
6.1.1	win	2020-04-03	13:21:48	1	1	1	USRTblock	1	USRT	43	600000	#ff0000	10pct	1	50pct	50pct	8000	227857	235872	227555	57	236217	345	0	1	41
6.1.1	win	2020-04-03	13:21:48	1	1	1	USRTblock	1	USRT	44	600000	#ff0000	10pct	1	50pct	50pct	5000	236220	241237	235872	57	241622	385	0	1	42
6.1.1	win	2020-04-03	13:21:48	1	1	1	USRTblock	1	USRT	45	600000	#ff0000	10pct	1	50pct	50pct	2000	241625	243637	241237	57	243940	303	0	1	43
6.1.1	win	2020-04-03	13:21:48	1	1	1	USRTblock	1	USRT	46	600000	#ff0000	10pct	1	50pct	50pct	6000	243944	249953	243637	57	250230	277	0	1	44
6.1.1	win	2020-04-03	13:21:48	1	1	1	USRTblock	1	USRT	47	600000	#ff0000	10pct	1	50pct	50pct	5000	250234	255253	249953	57	255588	335	0	1	45
6.1.1	win	2020-04-03	13:21:48	1	1	1	USRTblock	1	USRT	48	600000	#ff0000	10pct	1	50pct	50pct	2000	255592	257602	255253	57	257968	366	0	1	46
6.1.1	win	2020-04-03	13:21:48	1	1	1	USRTblock	1	USRT	49	600000	#ff0000	10pct	1	50pct	50pct	6000	257972	263985	257602	57	264353	368	0	1	47
6.1.1	win	2020-04-03	13:21:48	1	1	1	USRTblock	1	USRT	50	600000	#ff0000	10pct	1	50pct	50pct	2000	264356	266368	263985	57	266759	391	0	1	48
6.1.1	win	2020-04-03	13:21:48	1	1	1	USRTblock	1	USRT	51	600000	#ff0000	10pct	1	50pct	50pct	6000	266762	272767	266368	57	273049	282	0	1	49
6.1.1	win	2020-04-03	13:21:48	1	1	1	USRTblock	1	USRT	52	600000	#ff0000	10pct	1	50pct	50pct	4000	273053	277067	272767	57	277347	280	0	1	50
6.1.1	win	2020-04-03	13:21:48	1	1	1	USRTblock	1	USRT	53	600000	#ff0000	10pct	1	50pct	50pct	6000	277351	283367	277067	57	283644	277	0	1	51
6.1.1	win	2020-04-03	13:21:48	1	1	1	USRTblock	1	USRT	54	600000	#ff0000	10pct	1	50pct	50pct	5000	283648	288666	283367	57	288916	250	0	1	52
6.1.1	win	2020-04-03	13:21:48	1	1	1	USRTblock	1	USRT	55	600000	#ff0000	10pct	1	50pct	50pct	4000	288919	292931	288666	57	293307	376	0	1	53
6.1.1	win	2020-04-03	13:21:48	1	1	1	USRTblock	1	USRT	56	600000	#ff0000	10pct	1	50pct	50pct	7000	293310	-1	292931	57	293334	0	1	2	54
6.1.1	win	2020-04-03	13:21:48	1	1	1	USRTblock	1	USRT	57	600000	#ff0000	10pct	1	50pct	50pct	7000	293347	300365	-1	57	300680	315	0	2	55
6.1.1	win	2020-04-03	13:21:48	1	1	1	USRTblock	1	USRT	58	600000	#ff0000	10pct	1	50pct	50pct	2000	300683	302697	300365	57	303067	370	0	2	56
6.1.1	win	2020-04-03	13:21:48	1	1	1	USRTblock	1	USRT	59	600000	#ff0000	10pct	1	50pct	50pct	8000	303070	311080	302697	57	311390	310	0	2	57
6.1.1	win	2020-04-03	13:21:48	1	1	1	USRTblock	1	USRT	60	600000	#ff0000	10pct	1	50pct	50pct	8000	311393	319413	311080	57	319729	316	0	2	58
6.1.1	win	2020-04-03	13:21:48	1	1	1	USRTblock	1	USRT	61	600000	#ff0000	10pct	1	50pct	50pct	3000	319732	322745	319413	57	323090	345	0	2	59
6.1.1	win	2020-04-03	13:21:48	1	1	1	USRTblock	1	USRT	62	600000	#ff0000	10pct	1	50pct	50pct	3000	323094	326112	322745	57	326479	367	0	2	60
6.1.1	win	2020-04-03	13:21:48	1	1	1	USRTblock	1	USRT	63	600000	#ff0000	10pct	1	50pct	50pct	4000	326483	330495	326112	57	330755	260	0	2	61
6.1.1	win	2020-04-03	13:21:48	1	1	1	USRTblock	1	USRT	64	600000	#ff0000	10pct	1	50pct	50pct	5000	330758	335778	330495	57	336003	225	0	2	62
6.1.1	win	2020-04-03	13:21:48	1	1	1	USRTblock	1	USRT	65	600000	#ff0000	10pct	1	50pct	50pct	7000	336007	343027	335778	57	343285	258	0	2	63
6.1.1	win	2020-04-03	13:21:48	1	1	1	USRTblock	1	USRT	66	600000	#ff0000	10pct	1	50pct	50pct	8000	343289	351310	343027	57	351560	250	0	2	64
6.1.1	win	2020-04-03	13:21:48	1	1	1	USRTblock	1	USRT	67	600000	#ff0000	10pct	1	50pct	50pct	7000	351564	358576	351310	57	358837	261	0	2	65
6.1.1	win	2020-04-03	13:21:48	1	1	1	USRTblock	1	USRT	68	600000	#ff0000	10pct	1	50pct	50pct	3000	358840	361858	358576	57	362155	297	0	2	66
6.1.1	win	2020-04-03	13:21:48	1	1	1	USRTblock	1	USRT	69	600000	#ff0000	10pct	1	50pct	50pct	4000	362158	366175	361858	57	366514	339	0	2	67
6.1.1	win	2020-04-03	13:21:48	1	1	1	USRTblock	1	USRT	70	600000	#ff0000	10pct	1	50pct	50pct	8000	366518	374524	366175	57	374855	331	0	2	68
6.1.1	win	2020-04-03	13:21:48	1	1	1	USRTblock	1	USRT	71	600000	#ff0000	10pct	1	50pct	50pct	8000	374859	382873	374524	57	383240	367	0	2	69
6.1.1	win	2020-04-03	13:21:48	1	1	1	USRTblock	1	USRT	72	600000	#ff0000	10pct	1	50pct	50pct	5000	383245	388256	382873	57	388597	341	0	2	70
6.1.1	win	2020-04-03	13:21:48	1	1	1	USRTblock	1	USRT	73	600000	#ff0000	10pct	1	50pct	50pct	4000	388601	392605	388256	57	392994	389	0	2	71
6.1.1	win	2020-04-03	13:21:48	1	1	1	USRTblock	1	USRT	74	600000	#ff0000	10pct	1	50pct	50pct	3000	392998	396005	392605	57	396310	305	0	2	72
6.1.1	win	2020-04-03	13:21:48	1	1	1	USRTblock	1	USRT	75	600000	#ff0000	10pct	1	50pct	50pct	5000	396313	401321	396005	57	401606	285	0	2	73
6.1.1	win	2020-04-03	13:21:48	1	1	1	USRTblock	1	USRT	76	600000	#ff0000	10pct	1	50pct	50pct	2000	401609	403621	401321	57	404390	769	0	2	74
6.1.1	win	2020-04-03	13:21:48	1	1	1	USRTblock	1	USRT	77	600000	#ff0000	10pct	1	50pct	50pct	8000	404394	412404	403621	57	412696	292	0	2	75
6.1.1	win	2020-04-03	13:21:48	1	1	1	USRTblock	1	USRT	78	600000	#ff0000	10pct	1	50pct	50pct	4000	412699	416720	412404	57	416995	275	0	2	76
6.1.1	win	2020-04-03	13:21:48	1	1	1	USRTblock	1	USRT	79	600000	#ff0000	10pct	1	50pct	50pct	5000	417000	422019	416720	57	422343	324	0	2	77
6.1.1	win	2020-04-03	13:21:48	1	1	1	USRTblock	1	USRT	80	600000	#ff0000	10pct	1	50pct	50pct	2000	422347	424368	422019	57	424879	511	0	2	78
6.1.1	win	2020-04-03	13:21:48	1	1	1	USRTblock	1	USRT	81	600000	#ff0000	10pct	1	50pct	50pct	7000	424883	431902	424368	57	432205	303	0	2	79
6.1.1	win	2020-04-03	13:21:48	1	1	1	USRTblock	1	USRT	82	600000	#ff0000	10pct	1	50pct	50pct	8000	432209	440218	431902	57	440538	320	0	2	80
6.1.1	win	2020-04-03	13:21:48	1	1	1	USRTblock	1	USRT	83	600000	#ff0000	10pct	1	50pct	50pct	4000	440543	444550	440218	57	444934	384	0	2	81
6.1.1	win	2020-04-03	13:21:48	1	1	1	USRTblock	1	USRT	84	600000	#ff0000	10pct	1	50pct	50pct	3000	444938	447949	444550	57	448233	284	0	2	82
6.1.1	win	2020-04-03	13:21:48	1	1	1	USRTblock	1	USRT	85	600000	#ff0000	10pct	1	50pct	50pct	4000	448236	452249	447949	57	452568	319	0	2	83
6.1.1	win	2020-04-03	13:21:48	1	1	1	USRTblock	1	USRT	86	600000	#ff0000	10pct	1	50pct	50pct	6000	452571	458582	452249	57	458839	257	0	2	84
6.1.1	win	2020-04-03	13:21:48	1	1	1	USRTblock	1	USRT	87	600000	#ff0000	10pct	1	50pct	50pct	4000	458843	462848	458582	57	463102	254	0	2	85
6.1.1	win	2020-04-03	13:21:48	1	1	1	USRTblock	1	USRT	88	600000	#ff0000	10pct	1	50pct	50pct	8000	463106	471114	462848	57	471376	262	0	2	86
6.1.1	win	2020-04-03	13:21:48	1	1	1	USRTblock	1	USRT	89	600000	#ff0000	10pct	1	50pct	50pct	4000	471379	475397	471114	57	475711	314	0	2	87
6.1.1	win	2020-04-03	13:21:48	1	1	1	USRTblock	1	USRT	90	600000	#ff0000	10pct	1	50pct	50pct	7000	475715	482730	475397	57	483057	327	0	2	88
6.1.1	win	2020-04-03	13:21:48	1	1	1	USRTblock	1	USRT	91	600000	#ff0000	10pct	1	50pct	50pct	3000	483061	486079	482730	57	486401	322	0	2	89
6.1.1	win	2020-04-03	13:21:48	1	1	1	USRTblock	1	USRT	92	600000	#ff0000	10pct	1	50pct	50pct	3000	486404	489412	486079	57	489756	344	0	2	90
6.1.1	win	2020-04-03	13:21:48	1	1	1	USRTblock	1	USRT	93	600000	#ff0000	10pct	1	50pct	50pct	2000	489759	491779	489412	57	492110	331	0	2	91
6.1.1	win	2020-04-03	13:21:48	1	1	1	USRTblock	1	USRT	94	600000	#ff0000	10pct	1	50pct	50pct	6000	492115	498128	491779	57	498416	288	0	2	92
6.1.1	win	2020-04-03	13:21:48	1	1	1	USRTblock	1	USRT	95	600000	#ff0000	10pct	1	50pct	50pct	5000	498421	503427	498128	57	503680	253	0	2	93
6.1.1	win	2020-04-03	13:21:48	1	1	1	USRTblock	1	USRT	96	600000	#ff0000	10pct	1	50pct	50pct	2000	503684	505694	503427	57	506174	480	0	2	94
6.1.1	win	2020-04-03	13:21:48	1	1	1	USRTblock	1	USRT	97	600000	#ff0000	10pct	1	50pct	50pct	3000	506177	509193	505694	57	509579	386	0	2	95
6.1.1	win	2020-04-03	13:21:48	1	1	1	USRTblock	1	USRT	98	600000	#ff0000	10pct	1	50pct	50pct	2000	509582	511593	509193	57	511904	311	0	2	96
6.1.1	win	2020-04-03	13:21:48	1	1	1	USRTblock	1	USRT	99	600000	#ff0000	10pct	1	50pct	50pct	7000	511907	518926	511593	57	519246	320	0	2	97
6.1.1	win	2020-04-03	13:21:48	1	1	1	USRTblock	1	USRT	100	600000	#ff0000	10pct	1	50pct	50pct	6000	519250	525259	518926	57	525603	344	0	2	98
6.1.1	win	2020-04-03	13:21:48	1	1	1	USRTblock	1	USRT	101	600000	#ff0000	10pct	1	50pct	50pct	5000	525607	530625	525259	57	530968	343	0	2	99
6.1.1	win	2020-04-03	13:21:48	1	1	1	USRTblock	1	USRT	102	600000	#ff0000	10pct	1	50pct	50pct	4000	530972	534991	530625	57	535315	324	0	2	100
6.1.1	win	2020-04-03	13:21:48	1	1	1	USRTblock	1	USRT	103	600000	#ff0000	10pct	1	50pct	50pct	3000	535319	538324	534991	57	538761	437	0	2	101
6.1.1	win	2020-04-03	13:21:48	1	1	1	USRTblock	1	USRT	104	600000	#ff0000	10pct	1	50pct	50pct	7000	538765	545774	538324	57	546066	292	0	2	102
6.1.1	win	2020-04-03	13:21:48	1	1	1	USRTblock	1	USRT	105	600000	#ff0000	10pct	1	50pct	50pct	7000	546069	553089	545774	57	553439	350	0	2	103
6.1.1	win	2020-04-03	13:21:48	1	1	1	USRTblock	1	USRT	106	600000	#ff0000	10pct	1	50pct	50pct	4000	553443	557456	553089	57	557819	363	0	2	104
6.1.1	win	2020-04-03	13:21:48	1	1	1	USRTblock	1	USRT	107	600000	#ff0000	10pct	1	50pct	50pct	5000	557823	562838	557456	57	563140	302	0	2	105
6.1.1	win	2020-04-03	13:21:48	1	1	1	USRTblock	1	USRT	108	600000	#ff0000	10pct	1	50pct	50pct	5000	563143	568154	562838	57	568532	378	0	2	106
6.1.1	win	2020-04-03	13:21:48	1	1	1	USRTblock	1	USRT	109	600000	#ff0000	10pct	1	50pct	50pct	7000	568535	575553	568154	57	576117	564	0	2	107
6.1.1	win	2020-04-03	13:21:48	1	1	1	USRTblock	1	USRT	110	600000	#ff0000	10pct	1	50pct	50pct	8000	576120	584137	575553	57	584408	271	0	2	108
6.1.1	win	2020-04-03	13:21:48	1	1	1	USRTblock	1	USRT	111	600000	#ff0000	10pct	1	50pct	50pct	3000	584412	587418	584137	57	587727	309	0	2	109
6.1.1	win	2020-04-03	13:21:48	1	1	1	USRTblock	1	USRT	112	600000	#ff0000	10pct	1	50pct	50pct	2000	587730	589736	587418	57	590109	373	0	2	110
6.1.1	win	2020-04-03	13:21:48	1	1	1	USRTblock	1	USRT	113	600000	#ff0000	10pct	1	50pct	50pct	2000	590113	592118	589736	57	592424	306	0	2	111
6.1.1	win	2020-04-03	13:21:48	1	1	1	USRTblock	1	USRT	114	600000	#ff0000	10pct	1	50pct	50pct	4000	592427	596435	592118	57	596775	340	0	2	112
6.1.1	win	2020-04-03	13:21:48	1	1	1	USRTblock	1	USRT	115	600000	#ff0000	10pct	1	50pct	50pct	8000	596778	-1	596435	0	596882	0	1	3	113
