build	computer.platform	date	time	subject	group	sessionid	blockcode	blocknum	trialcode	trialnum	testduration	targetcolor	targetsize	fixed	targetx	targety	stiminterval	trialStart	shape.targetcircle.timestamp	lastCircleTimestamp	response	rt_elapsed	rt	EarlyResponse	countEarlyResponses	countResponses
6.1.1	win	2020-04-22	19:49:07	1	1	1	USRTblock	1	USRT	3	600000	#ff0000	10pct	1	50pct	50pct	4000	2653	6660	1907	57	6912	252	0	0	1
6.1.1	win	2020-04-22	19:49:07	1	1	1	USRTblock	1	USRT	4	600000	#ff0000	10pct	1	50pct	50pct	8000	6926	14943	6660	57	15231	288	0	0	2
6.1.1	win	2020-04-22	19:49:07	1	1	1	USRTblock	1	USRT	5	600000	#ff0000	10pct	1	50pct	50pct	5000	15235	20242	14943	57	20535	293	0	0	3
6.1.1	win	2020-04-22	19:49:07	1	1	1	USRTblock	1	USRT	6	600000	#ff0000	10pct	1	50pct	50pct	8000	20538	28558	20242	57	28829	271	0	0	4
6.1.1	win	2020-04-22	19:49:07	1	1	1	USRTblock	1	USRT	7	600000	#ff0000	10pct	1	50pct	50pct	5000	28832	33841	28558	57	34125	284	0	0	5
6.1.1	win	2020-04-22	19:49:07	1	1	1	USRTblock	1	USRT	8	600000	#ff0000	10pct	1	50pct	50pct	4000	34129	38140	33841	57	38430	290	0	0	6
6.1.1	win	2020-04-22	19:49:07	1	1	1	USRTblock	1	USRT	9	600000	#ff0000	10pct	1	50pct	50pct	6000	38434	44456	38140	57	44755	299	0	0	7
6.1.1	win	2020-04-22	19:49:07	1	1	1	USRTblock	1	USRT	10	600000	#ff0000	10pct	1	50pct	50pct	2000	44759	46773	44456	57	47117	344	0	0	8
6.1.1	win	2020-04-22	19:49:07	1	1	1	USRTblock	1	USRT	11	600000	#ff0000	10pct	1	50pct	50pct	4000	47121	51140	46773	57	51391	251	0	0	9
6.1.1	win	2020-04-22	19:49:07	1	1	1	USRTblock	1	USRT	12	600000	#ff0000	10pct	1	50pct	50pct	7000	51394	58405	51140	57	58687	282	0	0	10
6.1.1	win	2020-04-22	19:49:07	1	1	1	USRTblock	1	USRT	13	600000	#ff0000	10pct	1	50pct	50pct	7000	58691	65704	58405	57	66017	313	0	0	11
6.1.1	win	2020-04-22	19:49:07	1	1	1	USRTblock	1	USRT	14	600000	#ff0000	10pct	1	50pct	50pct	7000	66020	73037	65704	57	73399	362	0	0	12
6.1.1	win	2020-04-22	19:49:07	1	1	1	USRTblock	1	USRT	15	600000	#ff0000	10pct	1	50pct	50pct	8000	73402	81420	73037	57	81744	324	0	0	13
6.1.1	win	2020-04-22	19:49:07	1	1	1	USRTblock	1	USRT	16	600000	#ff0000	10pct	1	50pct	50pct	8000	81747	89752	81420	57	90074	322	0	0	14
6.1.1	win	2020-04-22	19:49:07	1	1	1	USRTblock	1	USRT	17	600000	#ff0000	10pct	1	50pct	50pct	6000	90078	96085	89752	57	96420	335	0	0	15
6.1.1	win	2020-04-22	19:49:07	1	1	1	USRTblock	1	USRT	18	600000	#ff0000	10pct	1	50pct	50pct	6000	96424	102434	96085	57	102761	327	0	0	16
6.1.1	win	2020-04-22	19:49:07	1	1	1	USRTblock	1	USRT	19	600000	#ff0000	10pct	1	50pct	50pct	6000	102765	108783	102434	57	109129	346	0	0	17
6.1.1	win	2020-04-22	19:49:07	1	1	1	USRTblock	1	USRT	20	600000	#ff0000	10pct	1	50pct	50pct	7000	109132	116149	108783	57	116456	307	0	0	18
6.1.1	win	2020-04-22	19:49:07	1	1	1	USRTblock	1	USRT	21	600000	#ff0000	10pct	1	50pct	50pct	2000	116459	118465	116149	57	118831	366	0	0	19
6.1.1	win	2020-04-22	19:49:07	1	1	1	USRTblock	1	USRT	22	600000	#ff0000	10pct	1	50pct	50pct	6000	118834	124848	118465	57	125179	331	0	0	20
6.1.1	win	2020-04-22	19:49:07	1	1	1	USRTblock	1	USRT	23	600000	#ff0000	10pct	1	50pct	50pct	5000	125182	130198	124848	57	130507	309	0	0	21
6.1.1	win	2020-04-22	19:49:07	1	1	1	USRTblock	1	USRT	24	600000	#ff0000	10pct	1	50pct	50pct	5000	130510	135531	130198	57	135827	296	0	0	22
6.1.1	win	2020-04-22	19:49:07	1	1	1	USRTblock	1	USRT	25	600000	#ff0000	10pct	1	50pct	50pct	6000	135830	141847	135531	57	142092	245	0	0	23
6.1.1	win	2020-04-22	19:49:07	1	1	1	USRTblock	1	USRT	26	600000	#ff0000	10pct	1	50pct	50pct	6000	142096	148113	141847	57	148450	337	0	0	24
6.1.1	win	2020-04-22	19:49:07	1	1	1	USRTblock	1	USRT	27	600000	#ff0000	10pct	1	50pct	50pct	2000	148454	150462	148113	57	150869	407	0	0	25
6.1.1	win	2020-04-22	19:49:07	1	1	1	USRTblock	1	USRT	28	600000	#ff0000	10pct	1	50pct	50pct	8000	150872	158878	150462	57	159182	304	0	0	26
6.1.1	win	2020-04-22	19:49:07	1	1	1	USRTblock	1	USRT	29	600000	#ff0000	10pct	1	50pct	50pct	3000	159185	162194	158878	57	162573	379	0	0	27
6.1.1	win	2020-04-22	19:49:07	1	1	1	USRTblock	1	USRT	30	600000	#ff0000	10pct	1	50pct	50pct	2000	162577	164594	162194	57	164952	358	0	0	28
6.1.1	win	2020-04-22	19:49:07	1	1	1	USRTblock	1	USRT	31	600000	#ff0000	10pct	1	50pct	50pct	5000	164955	169960	164594	57	170256	296	0	0	29
6.1.1	win	2020-04-22	19:49:07	1	1	1	USRTblock	1	USRT	32	600000	#ff0000	10pct	1	50pct	50pct	6000	170260	176277	169960	57	176563	286	0	0	30
6.1.1	win	2020-04-22	19:49:07	1	1	1	USRTblock	1	USRT	33	600000	#ff0000	10pct	1	50pct	50pct	7000	176567	183577	176277	57	183843	266	0	0	31
6.1.1	win	2020-04-22	19:49:07	1	1	1	USRTblock	1	USRT	34	600000	#ff0000	10pct	1	50pct	50pct	8000	183847	191859	183577	57	192168	309	0	0	32
6.1.1	win	2020-04-22	19:49:07	1	1	1	USRTblock	1	USRT	35	600000	#ff0000	10pct	1	50pct	50pct	2000	192172	194191	191859	57	194761	570	0	0	33
6.1.1	win	2020-04-22	19:49:07	1	1	1	USRTblock	1	USRT	36	600000	#ff0000	10pct	1	50pct	50pct	3000	194764	197774	194191	57	198039	265	0	0	34
6.1.1	win	2020-04-22	19:49:07	1	1	1	USRTblock	1	USRT	37	600000	#ff0000	10pct	1	50pct	50pct	3000	198043	201057	197774	57	201328	271	0	0	35
6.1.1	win	2020-04-22	19:49:07	1	1	1	USRTblock	1	USRT	38	600000	#ff0000	10pct	1	50pct	50pct	2000	201331	203340	201057	57	203628	288	0	0	36
6.1.1	win	2020-04-22	19:49:07	1	1	1	USRTblock	1	USRT	39	600000	#ff0000	10pct	1	50pct	50pct	8000	203631	211640	203340	57	211915	275	0	0	37
6.1.1	win	2020-04-22	19:49:07	1	1	1	USRTblock	1	USRT	40	600000	#ff0000	10pct	1	50pct	50pct	8000	211919	219939	211640	57	220197	258	0	0	38
6.1.1	win	2020-04-22	19:49:07	1	1	1	USRTblock	1	USRT	41	600000	#ff0000	10pct	1	50pct	50pct	8000	220201	228222	219939	57	228522	300	0	0	39
6.1.1	win	2020-04-22	19:49:07	1	1	1	USRTblock	1	USRT	42	600000	#ff0000	10pct	1	50pct	50pct	8000	228526	236538	228222	57	236802	264	0	0	40
6.1.1	win	2020-04-22	19:49:07	1	1	1	USRTblock	1	USRT	43	600000	#ff0000	10pct	1	50pct	50pct	3000	236805	239820	236538	57	240256	436	0	0	41
6.1.1	win	2020-04-22	19:49:07	1	1	1	USRTblock	1	USRT	44	600000	#ff0000	10pct	1	50pct	50pct	2000	240260	242270	239820	57	242711	441	0	0	42
6.1.1	win	2020-04-22	19:49:07	1	1	1	USRTblock	1	USRT	45	600000	#ff0000	10pct	1	50pct	50pct	8000	242715	250736	242270	57	251033	297	0	0	43
6.1.1	win	2020-04-22	19:49:07	1	1	1	USRTblock	1	USRT	46	600000	#ff0000	10pct	1	50pct	50pct	8000	251037	259052	250736	57	259387	335	0	0	44
6.1.1	win	2020-04-22	19:49:07	1	1	1	USRTblock	1	USRT	47	600000	#ff0000	10pct	1	50pct	50pct	8000	259391	267401	259052	57	267748	347	0	0	45
6.1.1	win	2020-04-22	19:49:07	1	1	1	USRTblock	1	USRT	48	600000	#ff0000	10pct	1	50pct	50pct	3000	267752	270767	267401	57	271125	358	0	0	46
6.1.1	win	2020-04-22	19:49:07	1	1	1	USRTblock	1	USRT	49	600000	#ff0000	10pct	1	50pct	50pct	5000	271129	276150	270767	57	276600	450	0	0	47
6.1.1	win	2020-04-22	19:49:07	1	1	1	USRTblock	1	USRT	50	600000	#ff0000	10pct	1	50pct	50pct	4000	276604	280617	276150	57	280929	312	0	0	48
6.1.1	win	2020-04-22	19:49:07	1	1	1	USRTblock	1	USRT	51	600000	#ff0000	10pct	1	50pct	50pct	3000	280933	283949	280617	57	284254	305	0	0	49
6.1.1	win	2020-04-22	19:49:07	1	1	1	USRTblock	1	USRT	52	600000	#ff0000	10pct	1	50pct	50pct	3000	284257	287265	283949	57	287595	330	0	0	50
6.1.1	win	2020-04-22	19:49:07	1	1	1	USRTblock	1	USRT	53	600000	#ff0000	10pct	1	50pct	50pct	5000	287599	292615	287265	57	292903	288	0	0	51
6.1.1	win	2020-04-22	19:49:07	1	1	1	USRTblock	1	USRT	54	600000	#ff0000	10pct	1	50pct	50pct	4000	292907	296914	292615	57	297369	455	0	0	52
6.1.1	win	2020-04-22	19:49:07	1	1	1	USRTblock	1	USRT	55	600000	#ff0000	10pct	1	50pct	50pct	3000	297373	300380	296914	57	300704	324	0	0	53
6.1.1	win	2020-04-22	19:49:07	1	1	1	USRTblock	1	USRT	56	600000	#ff0000	10pct	1	50pct	50pct	2000	300708	302731	300380	57	303100	369	0	0	54
6.1.1	win	2020-04-22	19:49:07	1	1	1	USRTblock	1	USRT	57	600000	#ff0000	10pct	1	50pct	50pct	5000	303104	308113	302731	57	308391	278	0	0	55
6.1.1	win	2020-04-22	19:49:07	1	1	1	USRTblock	1	USRT	58	600000	#ff0000	10pct	1	50pct	50pct	5000	308395	313413	308113	57	313789	376	0	0	56
6.1.1	win	2020-04-22	19:49:07	1	1	1	USRTblock	1	USRT	59	600000	#ff0000	10pct	1	50pct	50pct	6000	313793	319812	313413	57	320080	268	0	0	57
6.1.1	win	2020-04-22	19:49:07	1	1	1	USRTblock	1	USRT	60	600000	#ff0000	10pct	1	50pct	50pct	4000	320083	324095	319812	57	324424	329	0	0	58
6.1.1	win	2020-04-22	19:49:07	1	1	1	USRTblock	1	USRT	61	600000	#ff0000	10pct	1	50pct	50pct	4000	324427	328444	324095	57	328792	348	0	0	59
6.1.1	win	2020-04-22	19:49:07	1	1	1	USRTblock	1	USRT	62	600000	#ff0000	10pct	1	50pct	50pct	8000	328833	336850	328444	57	337169	319	0	0	60
6.1.1	win	2020-04-22	19:49:07	1	1	1	USRTblock	1	USRT	63	600000	#ff0000	10pct	1	50pct	50pct	8000	337173	345193	336850	57	345488	295	0	0	61
6.1.1	win	2020-04-22	19:49:07	1	1	1	USRTblock	1	USRT	64	600000	#ff0000	10pct	1	50pct	50pct	3000	345492	348509	345193	57	348869	360	0	0	62
6.1.1	win	2020-04-22	19:49:07	1	1	1	USRTblock	1	USRT	65	600000	#ff0000	10pct	1	50pct	50pct	5000	348872	353892	348509	57	354175	283	0	0	63
6.1.1	win	2020-04-22	19:49:07	1	1	1	USRTblock	1	USRT	66	600000	#ff0000	10pct	1	50pct	50pct	5000	354178	359191	353892	57	359599	408	0	0	64
6.1.1	win	2020-04-22	19:49:07	1	1	1	USRTblock	1	USRT	67	600000	#ff0000	10pct	1	50pct	50pct	4000	359603	363608	359191	57	363934	326	0	0	65
6.1.1	win	2020-04-22	19:49:07	1	1	1	USRTblock	1	USRT	68	600000	#ff0000	10pct	1	50pct	50pct	4000	363938	367958	363608	57	368271	313	0	0	66
6.1.1	win	2020-04-22	19:49:07	1	1	1	USRTblock	1	USRT	69	600000	#ff0000	10pct	1	50pct	50pct	8000	368274	376290	367958	57	376626	336	0	0	67
6.1.1	win	2020-04-22	19:49:07	1	1	1	USRTblock	1	USRT	70	600000	#ff0000	10pct	1	50pct	50pct	7000	376630	383640	376290	57	384146	506	0	0	68
6.1.1	win	2020-04-22	19:49:07	1	1	1	USRTblock	1	USRT	71	600000	#ff0000	10pct	1	50pct	50pct	2000	384150	386156	383640	57	386666	510	0	0	69
6.1.1	win	2020-04-22	19:49:07	1	1	1	USRTblock	1	USRT	72	600000	#ff0000	10pct	1	50pct	50pct	5000	386670	391688	386156	57	391938	250	0	0	70
6.1.1	win	2020-04-22	19:49:07	1	1	1	USRTblock	1	USRT	73	600000	#ff0000	10pct	1	50pct	50pct	3000	391941	394955	391688	57	395266	311	0	0	71
6.1.1	win	2020-04-22	19:49:07	1	1	1	USRTblock	1	USRT	74	600000	#ff0000	10pct	1	50pct	50pct	5000	395270	400288	394955	57	400563	275	0	0	72
6.1.1	win	2020-04-22	19:49:07	1	1	1	USRTblock	1	USRT	75	600000	#ff0000	10pct	1	50pct	50pct	5000	400567	405587	400288	57	405961	374	0	0	73
6.1.1	win	2020-04-22	19:49:07	1	1	1	USRTblock	1	USRT	76	600000	#ff0000	10pct	1	50pct	50pct	2000	405965	407970	405587	57	408396	426	0	0	74
6.1.1	win	2020-04-22	19:49:07	1	1	1	USRTblock	1	USRT	77	600000	#ff0000	10pct	1	50pct	50pct	2000	408400	410419	407970	57	410767	348	0	0	75
6.1.1	win	2020-04-22	19:49:07	1	1	1	USRTblock	1	USRT	78	600000	#ff0000	10pct	1	50pct	50pct	4000	410770	414786	410419	57	415079	293	0	0	76
6.1.1	win	2020-04-22	19:49:07	1	1	1	USRTblock	1	USRT	79	600000	#ff0000	10pct	1	50pct	50pct	7000	415083	422102	414786	57	422385	283	0	0	77
6.1.1	win	2020-04-22	19:49:07	1	1	1	USRTblock	1	USRT	80	600000	#ff0000	10pct	1	50pct	50pct	4000	422389	426402	422102	57	426841	439	0	0	78
6.1.1	win	2020-04-22	19:49:07	1	1	1	USRTblock	1	USRT	81	600000	#ff0000	10pct	1	50pct	50pct	5000	426846	431868	426402	57	432363	495	0	0	79
6.1.1	win	2020-04-22	19:49:07	1	1	1	USRTblock	1	USRT	82	600000	#ff0000	10pct	1	50pct	50pct	8000	432368	440384	431868	57	440673	289	0	0	80
6.1.1	win	2020-04-22	19:49:07	1	1	1	USRTblock	1	USRT	83	600000	#ff0000	10pct	1	50pct	50pct	7000	440676	447683	440384	57	447973	290	0	0	81
6.1.1	win	2020-04-22	19:49:07	1	1	1	USRTblock	1	USRT	84	600000	#ff0000	10pct	1	50pct	50pct	5000	447976	452983	447683	57	453420	437	0	0	82
6.1.1	win	2020-04-22	19:49:07	1	1	1	USRTblock	1	USRT	85	600000	#ff0000	10pct	1	50pct	50pct	4000	453423	457432	452983	57	457790	358	0	0	83
6.1.1	win	2020-04-22	19:49:07	1	1	1	USRTblock	1	USRT	86	600000	#ff0000	10pct	1	50pct	50pct	7000	457793	464815	457432	57	465079	264	0	0	84
6.1.1	win	2020-04-22	19:49:07	1	1	1	USRTblock	1	USRT	87	600000	#ff0000	10pct	1	50pct	50pct	3000	465082	468097	464815	57	468418	321	0	0	85
6.1.1	win	2020-04-22	19:49:07	1	1	1	USRTblock	1	USRT	88	600000	#ff0000	10pct	1	50pct	50pct	3000	468421	471431	468097	57	471785	354	0	0	86
6.1.1	win	2020-04-22	19:49:07	1	1	1	USRTblock	1	USRT	89	600000	#ff0000	10pct	1	50pct	50pct	2000	471788	473797	471431	57	474136	339	0	0	87
6.1.1	win	2020-04-22	19:49:07	1	1	1	USRTblock	1	USRT	90	600000	#ff0000	10pct	1	50pct	50pct	5000	474140	479146	473797	57	479468	322	0	0	88
6.1.1	win	2020-04-22	19:49:07	1	1	1	USRTblock	1	USRT	91	600000	#ff0000	10pct	1	50pct	50pct	4000	479472	483480	479146	57	483734	254	0	0	89
6.1.1	win	2020-04-22	19:49:07	1	1	1	USRTblock	1	USRT	92	600000	#ff0000	10pct	1	50pct	50pct	7000	483739	490745	483480	57	491002	257	0	0	90
6.1.1	win	2020-04-22	19:49:07	1	1	1	USRTblock	1	USRT	93	600000	#ff0000	10pct	1	50pct	50pct	8000	491005	499011	490745	57	499278	267	0	0	91
6.1.1	win	2020-04-22	19:49:07	1	1	1	USRTblock	1	USRT	94	600000	#ff0000	10pct	1	50pct	50pct	7000	499281	506294	499011	57	506573	279	0	0	92
6.1.1	win	2020-04-22	19:49:07	1	1	1	USRTblock	1	USRT	95	600000	#ff0000	10pct	1	50pct	50pct	3000	506576	509593	506294	57	509953	360	0	0	93
6.1.1	win	2020-04-22	19:49:07	1	1	1	USRTblock	1	USRT	96	600000	#ff0000	10pct	1	50pct	50pct	7000	509956	516976	509593	57	517267	291	0	0	94
6.1.1	win	2020-04-22	19:49:07	1	1	1	USRTblock	1	USRT	97	600000	#ff0000	10pct	1	50pct	50pct	5000	517271	522275	516976	57	522623	348	0	0	95
6.1.1	win	2020-04-22	19:49:07	1	1	1	USRTblock	1	USRT	98	600000	#ff0000	10pct	1	50pct	50pct	6000	522627	528641	522275	57	528943	302	0	0	96
6.1.1	win	2020-04-22	19:49:07	1	1	1	USRTblock	1	USRT	99	600000	#ff0000	10pct	1	50pct	50pct	3000	528947	531957	528641	57	532313	356	0	0	97
6.1.1	win	2020-04-22	19:49:07	1	1	1	USRTblock	1	USRT	100	600000	#ff0000	10pct	1	50pct	50pct	5000	532317	537324	531957	57	537668	344	0	0	98
6.1.1	win	2020-04-22	19:49:07	1	1	1	USRTblock	1	USRT	101	600000	#ff0000	10pct	1	50pct	50pct	8000	537671	545690	537324	57	545978	288	0	0	99
6.1.1	win	2020-04-22	19:49:07	1	1	1	USRTblock	1	USRT	102	600000	#ff0000	10pct	1	50pct	50pct	8000	545982	553989	545690	57	554252	263	0	0	100
6.1.1	win	2020-04-22	19:49:07	1	1	1	USRTblock	1	USRT	103	600000	#ff0000	10pct	1	50pct	50pct	8000	554255	562271	553989	57	562628	357	0	0	101
6.1.1	win	2020-04-22	19:49:07	1	1	1	USRTblock	1	USRT	104	600000	#ff0000	10pct	1	50pct	50pct	2000	562632	564637	562271	57	565042	405	0	0	102
6.1.1	win	2020-04-22	19:49:07	1	1	1	USRTblock	1	USRT	105	600000	#ff0000	10pct	1	50pct	50pct	7000	565045	572054	564637	57	572383	329	0	0	103
6.1.1	win	2020-04-22	19:49:07	1	1	1	USRTblock	1	USRT	106	600000	#ff0000	10pct	1	50pct	50pct	8000	572386	580403	572054	57	580756	353	0	0	104
6.1.1	win	2020-04-22	19:49:07	1	1	1	USRTblock	1	USRT	107	600000	#ff0000	10pct	1	50pct	50pct	4000	580760	584769	580403	57	585126	357	0	0	105
6.1.1	win	2020-04-22	19:49:07	1	1	1	USRTblock	1	USRT	108	600000	#ff0000	10pct	1	50pct	50pct	4000	585130	589135	584769	57	589462	327	0	0	106
6.1.1	win	2020-04-22	19:49:07	1	1	1	USRTblock	1	USRT	109	600000	#ff0000	10pct	1	50pct	50pct	4000	589465	593485	589135	57	593865	380	0	0	107
6.1.1	win	2020-04-22	19:49:07	1	1	1	USRTblock	1	USRT	110	600000	#ff0000	10pct	1	50pct	50pct	3000	593868	596885	593485	57	597236	351	0	0	108
6.1.1	win	2020-04-22	19:49:07	1	1	1	USRTblock	1	USRT	111	600000	#ff0000	10pct	1	50pct	50pct	4000	597267	-1	596885	0	597361	0	1	1	109
