build	computer.platform	date	time	subject	group	sessionid	blockcode	blocknum	trialcode	trialnum	testduration	targetcolor	targetsize	fixed	targetx	targety	stiminterval	trialStart	shape.targetcircle.timestamp	lastCircleTimestamp	response	rt_elapsed	rt	EarlyResponse	countEarlyResponses	countResponses
6.1.1	win	2020-04-22	22:50:33	1	1	1	USRTblock	1	USRT	3	600000	#ff0000	10pct	1	50pct	50pct	2000	3172	5182	2395	57	5428	246	0	0	1
6.1.1	win	2020-04-22	22:50:33	1	1	1	USRTblock	1	USRT	4	600000	#ff0000	10pct	1	50pct	50pct	7000	5446	12465	5182	57	12726	261	0	0	2
6.1.1	win	2020-04-22	22:50:33	1	1	1	USRTblock	1	USRT	5	600000	#ff0000	10pct	1	50pct	50pct	3000	12731	15748	12465	57	15997	249	0	0	3
6.1.1	win	2020-04-22	22:50:33	1	1	1	USRTblock	1	USRT	6	600000	#ff0000	10pct	1	50pct	50pct	8000	16001	24014	15748	57	24406	392	0	0	4
6.1.1	win	2020-04-22	22:50:33	1	1	1	USRTblock	1	USRT	7	600000	#ff0000	10pct	1	50pct	50pct	3000	24411	27430	24014	57	27836	406	0	0	5
6.1.1	win	2020-04-22	22:50:33	1	1	1	USRTblock	1	USRT	8	600000	#ff0000	10pct	1	50pct	50pct	8000	27842	35862	27430	57	36200	338	0	0	6
6.1.1	win	2020-04-22	22:50:33	1	1	1	USRTblock	1	USRT	9	600000	#ff0000	10pct	1	50pct	50pct	8000	36204	44212	35862	57	44456	244	0	0	7
6.1.1	win	2020-04-22	22:50:33	1	1	1	USRTblock	1	USRT	10	600000	#ff0000	10pct	1	50pct	50pct	8000	44462	52478	44212	57	52727	249	0	0	8
6.1.1	win	2020-04-22	22:50:33	1	1	1	USRTblock	1	USRT	11	600000	#ff0000	10pct	1	50pct	50pct	8000	52731	60744	52478	57	61101	357	0	0	9
6.1.1	win	2020-04-22	22:50:33	1	1	1	USRTblock	1	USRT	12	600000	#ff0000	10pct	1	50pct	50pct	5000	61105	66126	60744	57	66429	303	0	0	10
6.1.1	win	2020-04-22	22:50:33	1	1	1	USRTblock	1	USRT	13	600000	#ff0000	10pct	1	50pct	50pct	2000	66433	68443	66126	57	68891	448	0	0	11
6.1.1	win	2020-04-22	22:50:33	1	1	1	USRTblock	1	USRT	14	600000	#ff0000	10pct	1	50pct	50pct	7000	68895	75909	68443	57	76355	446	0	0	12
6.1.1	win	2020-04-22	22:50:33	1	1	1	USRTblock	1	USRT	15	600000	#ff0000	10pct	1	50pct	50pct	5000	76359	81375	75909	57	81746	371	0	0	13
6.1.1	win	2020-04-22	22:50:33	1	1	1	USRTblock	1	USRT	16	600000	#ff0000	10pct	1	50pct	50pct	2000	81751	83758	81375	57	84046	288	0	0	14
6.1.1	win	2020-04-22	22:50:33	1	1	1	USRTblock	1	USRT	17	600000	#ff0000	10pct	1	50pct	50pct	8000	84051	92057	83758	57	92331	274	0	0	15
6.1.1	win	2020-04-22	22:50:33	1	1	1	USRTblock	1	USRT	18	600000	#ff0000	10pct	1	50pct	50pct	3000	92335	95356	92057	57	95821	465	0	0	16
6.1.1	win	2020-04-22	22:50:33	1	1	1	USRTblock	1	USRT	19	600000	#ff0000	10pct	1	50pct	50pct	7000	95826	102840	95356	57	103191	351	0	0	17
6.1.1	win	2020-04-22	22:50:33	1	1	1	USRTblock	1	USRT	20	600000	#ff0000	10pct	1	50pct	50pct	2000	103196	105205	102840	57	105734	529	0	0	18
6.1.1	win	2020-04-22	22:50:33	1	1	1	USRTblock	1	USRT	21	600000	#ff0000	10pct	1	50pct	50pct	6000	105739	111755	105205	57	112085	330	0	0	19
6.1.1	win	2020-04-22	22:50:33	1	1	1	USRTblock	1	USRT	22	600000	#ff0000	10pct	1	50pct	50pct	2000	112090	114104	111755	57	114435	331	0	0	20
6.1.1	win	2020-04-22	22:50:33	1	1	1	USRTblock	1	USRT	23	600000	#ff0000	10pct	1	50pct	50pct	7000	114439	121454	114104	57	121816	362	0	0	21
6.1.1	win	2020-04-22	22:50:33	1	1	1	USRTblock	1	USRT	24	600000	#ff0000	10pct	1	50pct	50pct	6000	121820	127837	121454	57	128147	310	0	0	22
6.1.1	win	2020-04-22	22:50:33	1	1	1	USRTblock	1	USRT	25	600000	#ff0000	10pct	1	50pct	50pct	6000	128151	134169	127837	57	134622	453	0	0	23
6.1.1	win	2020-04-22	22:50:33	1	1	1	USRTblock	1	USRT	26	600000	#ff0000	10pct	1	50pct	50pct	5000	134626	139635	134169	57	140194	559	0	0	24
6.1.1	win	2020-04-22	22:50:33	1	1	1	USRTblock	1	USRT	27	600000	#ff0000	10pct	1	50pct	50pct	4000	140198	144218	139635	57	144650	432	0	0	25
6.1.1	win	2020-04-22	22:50:33	1	1	1	USRTblock	1	USRT	28	600000	#ff0000	10pct	1	50pct	50pct	5000	144655	149668	144218	57	150136	468	0	0	26
6.1.1	win	2020-04-22	22:50:33	1	1	1	USRTblock	1	USRT	29	600000	#ff0000	10pct	1	50pct	50pct	4000	150141	154150	149668	57	154513	363	0	0	27
6.1.1	win	2020-04-22	22:50:33	1	1	1	USRTblock	1	USRT	30	600000	#ff0000	10pct	1	50pct	50pct	2000	154517	156534	154150	57	156893	359	0	0	28
6.1.1	win	2020-04-22	22:50:33	1	1	1	USRTblock	1	USRT	31	600000	#ff0000	10pct	1	50pct	50pct	2000	156897	158917	156534	57	159377	460	0	0	29
6.1.1	win	2020-04-22	22:50:33	1	1	1	USRTblock	1	USRT	32	600000	#ff0000	10pct	1	50pct	50pct	6000	159382	165400	158917	57	165689	289	0	0	30
6.1.1	win	2020-04-22	22:50:33	1	1	1	USRTblock	1	USRT	33	600000	#ff0000	10pct	1	50pct	50pct	2000	165694	167699	165400	57	168244	545	0	0	31
6.1.1	win	2020-04-22	22:50:33	1	1	1	USRTblock	1	USRT	34	600000	#ff0000	10pct	1	50pct	50pct	3000	168249	171265	167699	57	171626	361	0	0	32
6.1.1	win	2020-04-22	22:50:33	1	1	1	USRTblock	1	USRT	35	600000	#ff0000	10pct	1	50pct	50pct	2000	171631	173649	171265	57	174267	618	0	0	33
6.1.1	win	2020-04-22	22:50:33	1	1	1	USRTblock	1	USRT	36	600000	#ff0000	10pct	1	50pct	50pct	5000	174272	179282	173649	57	179648	366	0	0	34
6.1.1	win	2020-04-22	22:50:33	1	1	1	USRTblock	1	USRT	37	600000	#ff0000	10pct	1	50pct	50pct	5000	179652	-1	179282	57	182092	0	1	1	35
6.1.1	win	2020-04-22	22:50:33	1	1	1	USRTblock	1	USRT	38	600000	#ff0000	10pct	1	50pct	50pct	4000	182099	186114	-1	57	186584	470	0	1	36
6.1.1	win	2020-04-22	22:50:33	1	1	1	USRTblock	1	USRT	39	600000	#ff0000	10pct	1	50pct	50pct	4000	186589	190598	186114	57	190932	334	0	1	37
6.1.1	win	2020-04-22	22:50:33	1	1	1	USRTblock	1	USRT	40	600000	#ff0000	10pct	1	50pct	50pct	2000	190937	192947	190598	57	193411	464	0	1	38
6.1.1	win	2020-04-22	22:50:33	1	1	1	USRTblock	1	USRT	41	600000	#ff0000	10pct	1	50pct	50pct	6000	193416	199429	192947	57	199781	352	0	1	39
6.1.1	win	2020-04-22	22:50:33	1	1	1	USRTblock	1	USRT	42	600000	#ff0000	10pct	1	50pct	50pct	7000	199786	206795	199429	57	207159	364	0	1	40
6.1.1	win	2020-04-22	22:50:33	1	1	1	USRTblock	1	USRT	43	600000	#ff0000	10pct	1	50pct	50pct	2000	207192	209211	206795	57	209495	284	0	1	41
6.1.1	win	2020-04-22	22:50:33	1	1	1	USRTblock	1	USRT	44	600000	#ff0000	10pct	1	50pct	50pct	5000	209499	214512	209211	57	214765	253	0	1	42
6.1.1	win	2020-04-22	22:50:33	1	1	1	USRTblock	1	USRT	45	600000	#ff0000	10pct	1	50pct	50pct	3000	214769	217778	214512	57	218063	285	0	1	43
6.1.1	win	2020-04-22	22:50:33	1	1	1	USRTblock	1	USRT	46	600000	#ff0000	10pct	1	50pct	50pct	6000	218067	224077	217778	57	224319	242	0	1	44
6.1.1	win	2020-04-22	22:50:33	1	1	1	USRTblock	1	USRT	47	600000	#ff0000	10pct	1	50pct	50pct	6000	224323	230343	224077	57	230566	223	0	1	45
6.1.1	win	2020-04-22	22:50:33	1	1	1	USRTblock	1	USRT	48	600000	#ff0000	10pct	1	50pct	50pct	4000	230570	234592	230343	57	234898	306	0	1	46
6.1.1	win	2020-04-22	22:50:33	1	1	1	USRTblock	1	USRT	49	600000	#ff0000	10pct	1	50pct	50pct	7000	234903	241908	234592	57	242209	301	0	1	47
6.1.1	win	2020-04-22	22:50:33	1	1	1	USRTblock	1	USRT	50	600000	#ff0000	10pct	1	50pct	50pct	2000	242213	244224	241908	57	244588	364	0	1	48
6.1.1	win	2020-04-22	22:50:33	1	1	1	USRTblock	1	USRT	51	600000	#ff0000	10pct	1	50pct	50pct	4000	244593	248607	244224	57	248865	258	0	1	49
6.1.1	win	2020-04-22	22:50:33	1	1	1	USRTblock	1	USRT	52	600000	#ff0000	10pct	1	50pct	50pct	7000	248870	255890	248607	57	256169	279	0	1	50
6.1.1	win	2020-04-22	22:50:33	1	1	1	USRTblock	1	USRT	53	600000	#ff0000	10pct	1	50pct	50pct	7000	256174	263190	255890	57	263471	281	0	1	51
6.1.1	win	2020-04-22	22:50:33	1	1	1	USRTblock	1	USRT	54	600000	#ff0000	10pct	1	50pct	50pct	7000	263475	270489	263190	57	270790	301	0	1	52
6.1.1	win	2020-04-22	22:50:33	1	1	1	USRTblock	1	USRT	55	600000	#ff0000	10pct	1	50pct	50pct	4000	270794	274805	270489	57	275148	343	0	1	53
6.1.1	win	2020-04-22	22:50:33	1	1	1	USRTblock	1	USRT	56	600000	#ff0000	10pct	1	50pct	50pct	3000	275152	278171	274805	57	278459	288	0	1	54
6.1.1	win	2020-04-22	22:50:33	1	1	1	USRTblock	1	USRT	57	600000	#ff0000	10pct	1	50pct	50pct	4000	278463	282471	278171	57	282752	281	0	1	55
6.1.1	win	2020-04-22	22:50:33	1	1	1	USRTblock	1	USRT	58	600000	#ff0000	10pct	1	50pct	50pct	2000	282757	284771	282471	57	285089	318	0	1	56
6.1.1	win	2020-04-22	22:50:33	1	1	1	USRTblock	1	USRT	59	600000	#ff0000	10pct	1	50pct	50pct	7000	285093	292103	284771	57	292364	261	0	1	57
6.1.1	win	2020-04-22	22:50:33	1	1	1	USRTblock	1	USRT	60	600000	#ff0000	10pct	1	50pct	50pct	3000	292368	295387	292103	57	295716	329	0	1	58
6.1.1	win	2020-04-22	22:50:33	1	1	1	USRTblock	1	USRT	61	600000	#ff0000	10pct	1	50pct	50pct	3000	295720	298736	295387	57	299050	314	0	1	59
6.1.1	win	2020-04-22	22:50:33	1	1	1	USRTblock	1	USRT	62	600000	#ff0000	10pct	1	50pct	50pct	2000	299054	301069	298736	57	301488	419	0	1	60
6.1.1	win	2020-04-22	22:50:33	1	1	1	USRTblock	1	USRT	63	600000	#ff0000	10pct	1	50pct	50pct	7000	301493	308502	301069	57	308786	284	0	1	61
6.1.1	win	2020-04-22	22:50:33	1	1	1	USRTblock	1	USRT	64	600000	#ff0000	10pct	1	50pct	50pct	5000	308791	313801	308502	57	314137	336	0	1	62
6.1.1	win	2020-04-22	22:50:33	1	1	1	USRTblock	1	USRT	65	600000	#ff0000	10pct	1	50pct	50pct	3000	314142	317151	313801	57	317573	422	0	1	63
6.1.1	win	2020-04-22	22:50:33	1	1	1	USRTblock	1	USRT	66	600000	#ff0000	10pct	1	50pct	50pct	8000	317578	325584	317151	57	325853	269	0	1	64
6.1.1	win	2020-04-22	22:50:33	1	1	1	USRTblock	1	USRT	67	600000	#ff0000	10pct	1	50pct	50pct	7000	325857	332866	325584	57	333177	311	0	1	65
6.1.1	win	2020-04-22	22:50:33	1	1	1	USRTblock	1	USRT	68	600000	#ff0000	10pct	1	50pct	50pct	7000	333182	340199	332866	57	340504	305	0	1	66
6.1.1	win	2020-04-22	22:50:33	1	1	1	USRTblock	1	USRT	69	600000	#ff0000	10pct	1	50pct	50pct	2000	340508	342515	340199	57	342914	399	0	1	67
6.1.1	win	2020-04-22	22:50:33	1	1	1	USRTblock	1	USRT	70	600000	#ff0000	10pct	1	50pct	50pct	3000	342919	345932	342515	57	346344	412	0	1	68
6.1.1	win	2020-04-22	22:50:33	1	1	1	USRTblock	1	USRT	71	600000	#ff0000	10pct	1	50pct	50pct	2000	346348	348365	345932	57	348824	459	0	1	69
6.1.1	win	2020-04-22	22:50:33	1	1	1	USRTblock	1	USRT	72	600000	#ff0000	10pct	1	50pct	50pct	6000	348828	354847	348365	57	355126	279	0	1	70
6.1.1	win	2020-04-22	22:50:33	1	1	1	USRTblock	1	USRT	73	600000	#ff0000	10pct	1	50pct	50pct	2000	355130	357146	354847	57	357567	421	0	1	71
6.1.1	win	2020-04-22	22:50:33	1	1	1	USRTblock	1	USRT	74	600000	#ff0000	10pct	1	50pct	50pct	5000	357573	362580	357146	57	362965	385	0	1	72
6.1.1	win	2020-04-22	22:50:33	1	1	1	USRTblock	1	USRT	75	600000	#ff0000	10pct	1	50pct	50pct	8000	362970	370979	362580	57	371233	254	0	1	73
6.1.1	win	2020-04-22	22:50:33	1	1	1	USRTblock	1	USRT	76	600000	#ff0000	10pct	1	50pct	50pct	6000	371238	377245	370979	57	377542	297	0	1	74
6.1.1	win	2020-04-22	22:50:33	1	1	1	USRTblock	1	USRT	77	600000	#ff0000	10pct	1	50pct	50pct	8000	377547	385561	377245	57	385861	300	0	1	75
6.1.1	win	2020-04-22	22:50:33	1	1	1	USRTblock	1	USRT	78	600000	#ff0000	10pct	1	50pct	50pct	8000	385865	393876	385561	57	394175	299	0	1	76
6.1.1	win	2020-04-22	22:50:33	1	1	1	USRTblock	1	USRT	79	600000	#ff0000	10pct	1	50pct	50pct	4000	394179	398193	393876	57	398538	345	0	1	77
6.1.1	win	2020-04-22	22:50:33	1	1	1	USRTblock	1	USRT	80	600000	#ff0000	10pct	1	50pct	50pct	2000	398542	400559	398193	57	400875	316	0	1	78
6.1.1	win	2020-04-22	22:50:33	1	1	1	USRTblock	1	USRT	81	600000	#ff0000	10pct	1	50pct	50pct	7000	400879	407893	400559	57	408178	285	0	1	79
6.1.1	win	2020-04-22	22:50:33	1	1	1	USRTblock	1	USRT	82	600000	#ff0000	10pct	1	50pct	50pct	7000	408182	415191	407893	57	415514	323	0	1	80
6.1.1	win	2020-04-22	22:50:33	1	1	1	USRTblock	1	USRT	83	600000	#ff0000	10pct	1	50pct	50pct	4000	415518	419524	415191	57	419839	315	0	1	81
6.1.1	win	2020-04-22	22:50:33	1	1	1	USRTblock	1	USRT	84	600000	#ff0000	10pct	1	50pct	50pct	8000	419844	427857	419524	57	428191	334	0	1	82
6.1.1	win	2020-04-22	22:50:33	1	1	1	USRTblock	1	USRT	85	600000	#ff0000	10pct	1	50pct	50pct	2000	428196	430206	427857	57	430547	341	0	1	83
6.1.1	win	2020-04-22	22:50:33	1	1	1	USRTblock	1	USRT	86	600000	#ff0000	10pct	1	50pct	50pct	5000	430551	-1	430206	57	432328	0	1	2	84
6.1.1	win	2020-04-22	22:50:33	1	1	1	USRTblock	1	USRT	87	600000	#ff0000	10pct	1	50pct	50pct	5000	432333	437339	-1	57	437635	296	0	2	85
6.1.1	win	2020-04-22	22:50:33	1	1	1	USRTblock	1	USRT	88	600000	#ff0000	10pct	1	50pct	50pct	3000	437640	440655	437339	57	441014	359	0	2	86
6.1.1	win	2020-04-22	22:50:33	1	1	1	USRTblock	1	USRT	89	600000	#ff0000	10pct	1	50pct	50pct	4000	441019	445038	440655	57	445414	376	0	2	87
6.1.1	win	2020-04-22	22:50:33	1	1	1	USRTblock	1	USRT	90	600000	#ff0000	10pct	1	50pct	50pct	3000	445419	448438	445038	57	448760	322	0	2	88
6.1.1	win	2020-04-22	22:50:33	1	1	1	USRTblock	1	USRT	91	600000	#ff0000	10pct	1	50pct	50pct	4000	448764	452770	448438	57	453059	289	0	2	89
6.1.1	win	2020-04-22	22:50:33	1	1	1	USRTblock	1	USRT	92	600000	#ff0000	10pct	1	50pct	50pct	7000	453063	460070	452770	57	460355	285	0	2	90
6.1.1	win	2020-04-22	22:50:33	1	1	1	USRTblock	1	USRT	93	600000	#ff0000	10pct	1	50pct	50pct	3000	460360	463370	460070	57	463751	381	0	2	91
6.1.1	win	2020-04-22	22:50:33	1	1	1	USRTblock	1	USRT	94	600000	#ff0000	10pct	1	50pct	50pct	3000	463755	466770	463370	57	467068	298	0	2	92
6.1.1	win	2020-04-22	22:50:33	1	1	1	USRTblock	1	USRT	95	600000	#ff0000	10pct	1	50pct	50pct	4000	467073	471086	466770	57	471408	322	0	2	93
6.1.1	win	2020-04-22	22:50:33	1	1	1	USRTblock	1	USRT	96	600000	#ff0000	10pct	1	50pct	50pct	8000	471413	479418	471086	57	479811	393	0	2	94
6.1.1	win	2020-04-22	22:50:33	1	1	1	USRTblock	1	USRT	97	600000	#ff0000	10pct	1	50pct	50pct	4000	479816	483834	479418	57	484136	302	0	2	95
6.1.1	win	2020-04-22	22:50:33	1	1	1	USRTblock	1	USRT	98	600000	#ff0000	10pct	1	50pct	50pct	5000	484140	489150	483834	57	489483	333	0	2	96
6.1.1	win	2020-04-22	22:50:33	1	1	1	USRTblock	1	USRT	99	600000	#ff0000	10pct	1	50pct	50pct	4000	489487	493500	489150	57	493818	318	0	2	97
6.1.1	win	2020-04-22	22:50:33	1	1	1	USRTblock	1	USRT	100	600000	#ff0000	10pct	1	50pct	50pct	5000	493823	498833	493500	57	499186	353	0	2	98
6.1.1	win	2020-04-22	22:50:33	1	1	1	USRTblock	1	USRT	101	600000	#ff0000	10pct	1	50pct	50pct	7000	499190	506199	498833	57	506440	241	0	2	99
6.1.1	win	2020-04-22	22:50:33	1	1	1	USRTblock	1	USRT	102	600000	#ff0000	10pct	1	50pct	50pct	3000	506444	509465	506199	57	509761	296	0	2	100
6.1.1	win	2020-04-22	22:50:33	1	1	1	USRTblock	1	USRT	103	600000	#ff0000	10pct	1	50pct	50pct	2000	509766	511781	509465	57	512153	372	0	2	101
6.1.1	win	2020-04-22	22:50:33	1	1	1	USRTblock	1	USRT	104	600000	#ff0000	10pct	1	50pct	50pct	3000	512157	515164	511781	57	515477	313	0	2	102
6.1.1	win	2020-04-22	22:50:33	1	1	1	USRTblock	1	USRT	105	600000	#ff0000	10pct	1	50pct	50pct	4000	515482	519498	515164	57	519798	300	0	2	103
6.1.1	win	2020-04-22	22:50:33	1	1	1	USRTblock	1	USRT	106	600000	#ff0000	10pct	1	50pct	50pct	4000	519804	523814	519498	57	524096	282	0	2	104
6.1.1	win	2020-04-22	22:50:33	1	1	1	USRTblock	1	USRT	107	600000	#ff0000	10pct	1	50pct	50pct	2000	524101	526113	523814	57	526500	387	0	2	105
6.1.1	win	2020-04-22	22:50:33	1	1	1	USRTblock	1	USRT	108	600000	#ff0000	10pct	1	50pct	50pct	2000	526505	528513	526113	57	528821	308	0	2	106
6.1.1	win	2020-04-22	22:50:33	1	1	1	USRTblock	1	USRT	109	600000	#ff0000	10pct	1	50pct	50pct	3000	528825	531846	528513	57	532174	328	0	2	107
6.1.1	win	2020-04-22	22:50:33	1	1	1	USRTblock	1	USRT	110	600000	#ff0000	10pct	1	50pct	50pct	4000	532179	536196	531846	57	536490	294	0	2	108
6.1.1	win	2020-04-22	22:50:33	1	1	1	USRTblock	1	USRT	111	600000	#ff0000	10pct	1	50pct	50pct	5000	536495	541512	536196	57	541838	326	0	2	109
6.1.1	win	2020-04-22	22:50:33	1	1	1	USRTblock	1	USRT	112	600000	#ff0000	10pct	1	50pct	50pct	8000	541842	549861	541512	57	550177	316	0	2	110
6.1.1	win	2020-04-22	22:50:33	1	1	1	USRTblock	1	USRT	113	600000	#ff0000	10pct	1	50pct	50pct	8000	550182	558193	549861	57	558494	301	0	2	111
6.1.1	win	2020-04-22	22:50:33	1	1	1	USRTblock	1	USRT	114	600000	#ff0000	10pct	1	50pct	50pct	5000	558499	563509	558193	57	563799	290	0	2	112
6.1.1	win	2020-04-22	22:50:33	1	1	1	USRTblock	1	USRT	115	600000	#ff0000	10pct	1	50pct	50pct	4000	563803	567809	563509	57	567982	173	0	2	113
6.1.1	win	2020-04-22	22:50:33	1	1	1	USRTblock	1	USRT	116	600000	#ff0000	10pct	1	50pct	50pct	6000	567987	-1	567809	57	568196	0	1	3	114
6.1.1	win	2020-04-22	22:50:33	1	1	1	USRTblock	1	USRT	117	600000	#ff0000	10pct	1	50pct	50pct	8000	568201	576209	-1	57	576470	261	0	3	115
6.1.1	win	2020-04-22	22:50:33	1	1	1	USRTblock	1	USRT	118	600000	#ff0000	10pct	1	50pct	50pct	3000	576474	579491	576209	57	579826	335	0	3	116
6.1.1	win	2020-04-22	22:50:33	1	1	1	USRTblock	1	USRT	119	600000	#ff0000	10pct	1	50pct	50pct	2000	579830	581841	579491	57	582244	403	0	3	117
6.1.1	win	2020-04-22	22:50:33	1	1	1	USRTblock	1	USRT	120	600000	#ff0000	10pct	1	50pct	50pct	2000	582249	584257	581841	57	584594	337	0	3	118
6.1.1	win	2020-04-22	22:50:33	1	1	1	USRTblock	1	USRT	121	600000	#ff0000	10pct	1	50pct	50pct	5000	584598	589607	584257	57	589919	312	0	3	119
6.1.1	win	2020-04-22	22:50:33	1	1	1	USRTblock	1	USRT	122	600000	#ff0000	10pct	1	50pct	50pct	5000	589923	594940	589607	57	595353	413	0	3	120
6.1.1	win	2020-04-22	22:50:33	1	1	1	USRTblock	1	USRT	123	600000	#ff0000	10pct	1	50pct	50pct	3000	595357	598373	594940	57	598716	343	0	3	121
6.1.1	win	2020-04-22	22:50:33	1	1	1	USRTblock	1	USRT	124	600000	#ff0000	10pct	1	50pct	50pct	2000	598720	600739	598373	57	601175	436	0	3	122
6.1.1	win	2020-04-22	22:50:33	1	1	1	USRTblock	1	USRT	125	600000	#ff0000	10pct	1	50pct	50pct	6000	601180	-1	600739	0	601292	0	1	4	123
