build	computer.platform	date	time	subject	group	sessionid	blockcode	blocknum	trialcode	trialnum	testduration	targetcolor	targetsize	fixed	targetx	targety	stiminterval	trialStart	shape.targetcircle.timestamp	lastCircleTimestamp	response	rt_elapsed	rt	EarlyResponse	countEarlyResponses	countResponses
6.1.1	win	2020-04-21	19:47:41	1	1	1	USRTblock	1	USRT	3	600000	#ff0000	10pct	1	50pct	50pct	2000	2663	4682	1928	57	4923	241	0	0	1
6.1.1	win	2020-04-21	19:47:41	1	1	1	USRTblock	1	USRT	4	600000	#ff0000	10pct	1	50pct	50pct	8000	4937	12948	4682	57	13209	261	0	0	2
6.1.1	win	2020-04-21	19:47:41	1	1	1	USRTblock	1	USRT	5	600000	#ff0000	10pct	1	50pct	50pct	4000	13212	17230	12948	57	17541	311	0	0	3
6.1.1	win	2020-04-21	19:47:41	1	1	1	USRTblock	1	USRT	6	600000	#ff0000	10pct	1	50pct	50pct	3000	17544	20563	17230	57	20964	401	0	0	4
6.1.1	win	2020-04-21	19:47:41	1	1	1	USRTblock	1	USRT	7	600000	#ff0000	10pct	1	50pct	50pct	8000	20967	28979	20563	57	29271	292	0	0	5
6.1.1	win	2020-04-21	19:47:41	1	1	1	USRTblock	1	USRT	8	600000	#ff0000	10pct	1	50pct	50pct	8000	29274	37295	28979	57	37597	302	0	0	6
6.1.1	win	2020-04-21	19:47:41	1	1	1	USRTblock	1	USRT	9	600000	#ff0000	10pct	1	50pct	50pct	2000	37601	39611	37295	57	40283	672	0	0	7
6.1.1	win	2020-04-21	19:47:41	1	1	1	USRTblock	1	USRT	10	600000	#ff0000	10pct	1	50pct	50pct	7000	40287	47294	39611	57	47609	315	0	0	8
6.1.1	win	2020-04-21	19:47:41	1	1	1	USRTblock	1	USRT	11	600000	#ff0000	10pct	1	50pct	50pct	4000	47612	51626	47294	57	51982	356	0	0	9
6.1.1	win	2020-04-21	19:47:41	1	1	1	USRTblock	1	USRT	12	600000	#ff0000	10pct	1	50pct	50pct	5000	51986	56993	51626	57	57427	434	0	0	10
6.1.1	win	2020-04-21	19:47:41	1	1	1	USRTblock	1	USRT	13	600000	#ff0000	10pct	1	50pct	50pct	8000	57431	-1	56993	57	64723	0	1	1	11
6.1.1	win	2020-04-21	19:47:41	1	1	1	USRTblock	1	USRT	14	600000	#ff0000	10pct	1	50pct	50pct	8000	64726	72742	-1	57	73063	321	0	1	12
6.1.1	win	2020-04-21	19:47:41	1	1	1	USRTblock	1	USRT	15	600000	#ff0000	10pct	1	50pct	50pct	3000	73066	76074	72742	57	76451	377	0	1	13
6.1.1	win	2020-04-21	19:47:41	1	1	1	USRTblock	1	USRT	16	600000	#ff0000	10pct	1	50pct	50pct	3000	76455	79474	76074	57	79798	324	0	1	14
6.1.1	win	2020-04-21	19:47:41	1	1	1	USRTblock	1	USRT	17	600000	#ff0000	10pct	1	50pct	50pct	8000	79801	87807	79474	57	88200	393	0	1	15
6.1.1	win	2020-04-21	19:47:41	1	1	1	USRTblock	1	USRT	18	600000	#ff0000	10pct	1	50pct	50pct	8000	88203	96222	87807	57	96551	329	0	1	16
6.1.1	win	2020-04-21	19:47:41	1	1	1	USRTblock	1	USRT	19	600000	#ff0000	10pct	1	50pct	50pct	6000	96554	102573	96222	57	102958	385	0	1	17
6.1.1	win	2020-04-21	19:47:41	1	1	1	USRTblock	1	USRT	20	600000	#ff0000	10pct	1	50pct	50pct	7000	102962	109970	102573	57	110390	420	0	1	18
6.1.1	win	2020-04-21	19:47:41	1	1	1	USRTblock	1	USRT	21	600000	#ff0000	10pct	1	50pct	50pct	6000	110394	116404	109970	57	116706	302	0	1	19
6.1.1	win	2020-04-21	19:47:41	1	1	1	USRTblock	1	USRT	22	600000	#ff0000	10pct	1	50pct	50pct	7000	116717	123736	116404	57	124156	420	0	1	20
6.1.1	win	2020-04-21	19:47:41	1	1	1	USRTblock	1	USRT	23	600000	#ff0000	10pct	1	50pct	50pct	2000	124160	126169	123736	57	126511	342	0	1	21
6.1.1	win	2020-04-21	19:47:41	1	1	1	USRTblock	1	USRT	24	600000	#ff0000	10pct	1	50pct	50pct	8000	126515	134535	126169	57	134876	341	0	1	22
6.1.1	win	2020-04-21	19:47:41	1	1	1	USRTblock	1	USRT	25	600000	#ff0000	10pct	1	50pct	50pct	5000	134879	139885	134535	57	140229	344	0	1	23
6.1.1	win	2020-04-21	19:47:41	1	1	1	USRTblock	1	USRT	26	600000	#ff0000	10pct	1	50pct	50pct	4000	140250	144267	139885	57	144580	313	0	1	24
6.1.1	win	2020-04-21	19:47:41	1	1	1	USRTblock	1	USRT	27	600000	#ff0000	10pct	1	50pct	50pct	6000	144584	150600	144267	57	150918	318	0	1	25
6.1.1	win	2020-04-21	19:47:41	1	1	1	USRTblock	1	USRT	28	600000	#ff0000	10pct	1	50pct	50pct	6000	150922	156933	150600	57	157222	289	0	1	26
6.1.1	win	2020-04-21	19:47:41	1	1	1	USRTblock	1	USRT	29	600000	#ff0000	10pct	1	50pct	50pct	2000	157226	159232	156933	57	159637	405	0	1	27
6.1.1	win	2020-04-21	19:47:41	1	1	1	USRTblock	1	USRT	30	600000	#ff0000	10pct	1	50pct	50pct	4000	159641	163649	159232	57	163968	319	0	1	28
6.1.1	win	2020-04-21	19:47:41	1	1	1	USRTblock	1	USRT	31	600000	#ff0000	10pct	1	50pct	50pct	2000	163971	165982	163649	57	166360	378	0	1	29
6.1.1	win	2020-04-21	19:47:41	1	1	1	USRTblock	1	USRT	32	600000	#ff0000	10pct	1	50pct	50pct	4000	166363	170381	165982	57	170727	346	0	1	30
6.1.1	win	2020-04-21	19:47:41	1	1	1	USRTblock	1	USRT	33	600000	#ff0000	10pct	1	50pct	50pct	4000	170730	174748	170381	57	175039	291	0	1	31
6.1.1	win	2020-04-21	19:47:41	1	1	1	USRTblock	1	USRT	34	600000	#ff0000	10pct	1	50pct	50pct	2000	175042	177047	174748	57	177470	423	0	1	32
6.1.1	win	2020-04-21	19:47:41	1	1	1	USRTblock	1	USRT	35	600000	#ff0000	10pct	1	50pct	50pct	7000	177473	184481	177047	57	184804	323	0	1	33
6.1.1	win	2020-04-21	19:47:41	1	1	1	USRTblock	1	USRT	36	600000	#ff0000	10pct	1	50pct	50pct	5000	184807	189813	184481	57	190108	295	0	1	34
6.1.1	win	2020-04-21	19:47:41	1	1	1	USRTblock	1	USRT	37	600000	#ff0000	10pct	1	50pct	50pct	6000	190111	196129	189813	57	196396	267	0	1	35
6.1.1	win	2020-04-21	19:47:41	1	1	1	USRTblock	1	USRT	38	600000	#ff0000	10pct	1	50pct	50pct	5000	196420	201428	196129	57	201736	308	0	1	36
6.1.1	win	2020-04-21	19:47:41	1	1	1	USRTblock	1	USRT	39	600000	#ff0000	10pct	1	50pct	50pct	2000	201740	203744	201428	57	204020	276	0	1	37
6.1.1	win	2020-04-21	19:47:41	1	1	1	USRTblock	1	USRT	40	600000	#ff0000	10pct	1	50pct	50pct	6000	204024	210045	203744	57	210311	266	0	1	38
6.1.1	win	2020-04-21	19:47:41	1	1	1	USRTblock	1	USRT	41	600000	#ff0000	10pct	1	50pct	50pct	6000	210314	216327	210045	57	216628	301	0	1	39
6.1.1	win	2020-04-21	19:47:41	1	1	1	USRTblock	1	USRT	42	600000	#ff0000	10pct	1	50pct	50pct	7000	216631	223643	216327	57	223966	323	0	1	40
6.1.1	win	2020-04-21	19:47:41	1	1	1	USRTblock	1	USRT	43	600000	#ff0000	10pct	1	50pct	50pct	2000	223969	225975	223643	57	226299	324	0	1	41
6.1.1	win	2020-04-21	19:47:41	1	1	1	USRTblock	1	USRT	44	600000	#ff0000	10pct	1	50pct	50pct	6000	226302	232309	225975	57	232593	284	0	1	42
6.1.1	win	2020-04-21	19:47:41	1	1	1	USRTblock	1	USRT	45	600000	#ff0000	10pct	1	50pct	50pct	6000	232596	238608	232309	57	238844	236	0	1	43
6.1.1	win	2020-04-21	19:47:41	1	1	1	USRTblock	1	USRT	46	600000	#ff0000	10pct	1	50pct	50pct	8000	238847	246857	238608	57	247162	305	0	1	44
6.1.1	win	2020-04-21	19:47:41	1	1	1	USRTblock	1	USRT	47	600000	#ff0000	10pct	1	50pct	50pct	3000	247167	250190	246857	57	250601	411	0	1	45
6.1.1	win	2020-04-21	19:47:41	1	1	1	USRTblock	1	USRT	48	600000	#ff0000	10pct	1	50pct	50pct	5000	250606	255623	250190	57	255944	321	0	1	46
6.1.1	win	2020-04-21	19:47:41	1	1	1	USRTblock	1	USRT	49	600000	#ff0000	10pct	1	50pct	50pct	4000	255948	259956	255623	57	260227	271	0	1	47
6.1.1	win	2020-04-21	19:47:41	1	1	1	USRTblock	1	USRT	50	600000	#ff0000	10pct	1	50pct	50pct	4000	260231	264239	259956	57	264559	320	0	1	48
6.1.1	win	2020-04-21	19:47:41	1	1	1	USRTblock	1	USRT	51	600000	#ff0000	10pct	1	50pct	50pct	4000	264563	268572	264239	57	269029	457	0	1	49
6.1.1	win	2020-04-21	19:47:41	1	1	1	USRTblock	1	USRT	52	600000	#ff0000	10pct	1	50pct	50pct	4000	269033	273038	268572	57	273364	326	0	1	50
6.1.1	win	2020-04-21	19:47:41	1	1	1	USRTblock	1	USRT	53	600000	#ff0000	10pct	1	50pct	50pct	3000	273367	276387	273038	57	276685	298	0	1	51
6.1.1	win	2020-04-21	19:47:41	1	1	1	USRTblock	1	USRT	54	600000	#ff0000	10pct	1	50pct	50pct	6000	276689	282703	276387	57	282975	272	0	1	52
6.1.1	win	2020-04-21	19:47:41	1	1	1	USRTblock	1	USRT	55	600000	#ff0000	10pct	1	50pct	50pct	4000	282980	287003	282703	57	287305	302	0	1	53
6.1.1	win	2020-04-21	19:47:41	1	1	1	USRTblock	1	USRT	56	600000	#ff0000	10pct	1	50pct	50pct	3000	287308	290319	287003	57	290606	287	0	1	54
6.1.1	win	2020-04-21	19:47:41	1	1	1	USRTblock	1	USRT	57	600000	#ff0000	10pct	1	50pct	50pct	4000	290610	294619	290319	57	294986	367	0	1	55
6.1.1	win	2020-04-21	19:47:41	1	1	1	USRTblock	1	USRT	58	600000	#ff0000	10pct	1	50pct	50pct	2000	294989	297002	294619	57	297297	295	0	1	56
6.1.1	win	2020-04-21	19:47:41	1	1	1	USRTblock	1	USRT	59	600000	#ff0000	10pct	1	50pct	50pct	8000	297300	305318	297002	57	305817	499	0	1	57
6.1.1	win	2020-04-21	19:47:41	1	1	1	USRTblock	1	USRT	60	600000	#ff0000	10pct	1	50pct	50pct	5000	305820	310834	305318	57	311308	474	0	1	58
6.1.1	win	2020-04-21	19:47:41	1	1	1	USRTblock	1	USRT	61	600000	#ff0000	10pct	1	50pct	50pct	6000	311311	317317	310834	57	317610	293	0	1	59
6.1.1	win	2020-04-21	19:47:41	1	1	1	USRTblock	1	USRT	62	600000	#ff0000	10pct	1	50pct	50pct	7000	317613	324633	317317	57	324947	314	0	1	60
6.1.1	win	2020-04-21	19:47:41	1	1	1	USRTblock	1	USRT	63	600000	#ff0000	10pct	1	50pct	50pct	4000	324951	328965	324633	57	329249	284	0	1	61
6.1.1	win	2020-04-21	19:47:41	1	1	1	USRTblock	1	USRT	64	600000	#ff0000	10pct	1	50pct	50pct	4000	329253	333265	328965	57	333568	303	0	1	62
6.1.1	win	2020-04-21	19:47:41	1	1	1	USRTblock	1	USRT	65	600000	#ff0000	10pct	1	50pct	50pct	6000	333571	339582	333265	57	339849	267	0	1	63
6.1.1	win	2020-04-21	19:47:41	1	1	1	USRTblock	1	USRT	66	600000	#ff0000	10pct	1	50pct	50pct	4000	339853	343864	339582	57	344234	370	0	1	64
6.1.1	win	2020-04-21	19:47:41	1	1	1	USRTblock	1	USRT	67	600000	#ff0000	10pct	1	50pct	50pct	3000	344237	347247	343864	57	347594	347	0	1	65
6.1.1	win	2020-04-21	19:47:41	1	1	1	USRTblock	1	USRT	68	600000	#ff0000	10pct	1	50pct	50pct	6000	347607	353613	347247	57	353917	304	0	1	66
6.1.1	win	2020-04-21	19:47:41	1	1	1	USRTblock	1	USRT	69	600000	#ff0000	10pct	1	50pct	50pct	3000	353920	356930	353613	57	357321	391	0	1	67
6.1.1	win	2020-04-21	19:47:41	1	1	1	USRTblock	1	USRT	70	600000	#ff0000	10pct	1	50pct	50pct	5000	357325	362346	356930	57	362767	421	0	1	68
6.1.1	win	2020-04-21	19:47:41	1	1	1	USRTblock	1	USRT	71	600000	#ff0000	10pct	1	50pct	50pct	5000	362770	367778	362346	57	368102	324	0	1	69
6.1.1	win	2020-04-21	19:47:41	1	1	1	USRTblock	1	USRT	72	600000	#ff0000	10pct	1	50pct	50pct	8000	368105	376112	367778	57	376400	288	0	1	70
6.1.1	win	2020-04-21	19:47:41	1	1	1	USRTblock	1	USRT	73	600000	#ff0000	10pct	1	50pct	50pct	4000	376404	380427	376112	57	380792	365	0	1	71
6.1.1	win	2020-04-21	19:47:41	1	1	1	USRTblock	1	USRT	74	600000	#ff0000	10pct	1	50pct	50pct	2000	380795	382810	380427	57	383142	332	0	1	72
6.1.1	win	2020-04-21	19:47:41	1	1	1	USRTblock	1	USRT	75	600000	#ff0000	10pct	1	50pct	50pct	6000	383145	389159	382810	57	389448	289	0	1	73
6.1.1	win	2020-04-21	19:47:41	1	1	1	USRTblock	1	USRT	76	600000	#ff0000	10pct	1	50pct	50pct	4000	389452	393459	389159	57	393781	322	0	1	74
6.1.1	win	2020-04-21	19:47:41	1	1	1	USRTblock	1	USRT	77	600000	#ff0000	10pct	1	50pct	50pct	4000	393784	397792	393459	57	398116	324	0	1	75
6.1.1	win	2020-04-21	19:47:41	1	1	1	USRTblock	1	USRT	78	600000	#ff0000	10pct	1	50pct	50pct	7000	398119	405125	397792	57	405400	275	0	1	76
6.1.1	win	2020-04-21	19:47:41	1	1	1	USRTblock	1	USRT	79	600000	#ff0000	10pct	1	50pct	50pct	8000	405403	413424	405125	57	413880	456	0	1	77
6.1.1	win	2020-04-21	19:47:41	1	1	1	USRTblock	1	USRT	80	600000	#ff0000	10pct	1	50pct	50pct	4000	413884	417890	413424	57	418218	328	0	1	78
6.1.1	win	2020-04-21	19:47:41	1	1	1	USRTblock	1	USRT	81	600000	#ff0000	10pct	1	50pct	50pct	4000	418222	422240	417890	57	422614	374	0	1	79
6.1.1	win	2020-04-21	19:47:41	1	1	1	USRTblock	1	USRT	82	600000	#ff0000	10pct	1	50pct	50pct	7000	422617	429622	422240	57	429968	346	0	1	80
6.1.1	win	2020-04-21	19:47:41	1	1	1	USRTblock	1	USRT	83	600000	#ff0000	10pct	1	50pct	50pct	5000	429971	434988	429622	57	435284	296	0	1	81
6.1.1	win	2020-04-21	19:47:41	1	1	1	USRTblock	1	USRT	84	600000	#ff0000	10pct	1	50pct	50pct	4000	435288	439304	434988	57	439624	320	0	1	82
6.1.1	win	2020-04-21	19:47:41	1	1	1	USRTblock	1	USRT	85	600000	#ff0000	10pct	1	50pct	50pct	2000	439628	441637	439304	57	442036	399	0	1	83
6.1.1	win	2020-04-21	19:47:41	1	1	1	USRTblock	1	USRT	86	600000	#ff0000	10pct	1	50pct	50pct	4000	442039	446054	441637	57	446392	338	0	1	84
6.1.1	win	2020-04-21	19:47:41	1	1	1	USRTblock	1	USRT	87	600000	#ff0000	10pct	1	50pct	50pct	2000	446396	448403	446054	57	448758	355	0	1	85
6.1.1	win	2020-04-21	19:47:41	1	1	1	USRTblock	1	USRT	88	600000	#ff0000	10pct	1	50pct	50pct	2000	448762	450770	448403	57	451132	362	0	1	86
6.1.1	win	2020-04-21	19:47:41	1	1	1	USRTblock	1	USRT	89	600000	#ff0000	10pct	1	50pct	50pct	3000	451135	454152	450770	57	454499	347	0	1	87
6.1.1	win	2020-04-21	19:47:41	1	1	1	USRTblock	1	USRT	90	600000	#ff0000	10pct	1	50pct	50pct	8000	454502	462519	454152	57	462820	301	0	1	88
6.1.1	win	2020-04-21	19:47:41	1	1	1	USRTblock	1	USRT	91	600000	#ff0000	10pct	1	50pct	50pct	2000	462823	464835	462519	57	465459	624	0	1	89
6.1.1	win	2020-04-21	19:47:41	1	1	1	USRTblock	1	USRT	92	600000	#ff0000	10pct	1	50pct	50pct	7000	465462	472468	464835	57	472825	357	0	1	90
6.1.1	win	2020-04-21	19:47:41	1	1	1	USRTblock	1	USRT	93	600000	#ff0000	10pct	1	50pct	50pct	3000	472829	475834	472468	57	476244	410	0	1	91
6.1.1	win	2020-04-21	19:47:41	1	1	1	USRTblock	1	USRT	94	600000	#ff0000	10pct	1	50pct	50pct	8000	476248	484268	475834	57	484640	372	0	1	92
6.1.1	win	2020-04-21	19:47:41	1	1	1	USRTblock	1	USRT	95	600000	#ff0000	10pct	1	50pct	50pct	7000	484643	491649	484268	57	491918	269	0	1	93
6.1.1	win	2020-04-21	19:47:41	1	1	1	USRTblock	1	USRT	96	600000	#ff0000	10pct	1	50pct	50pct	2000	491921	493932	491649	57	494260	328	0	1	94
6.1.1	win	2020-04-21	19:47:41	1	1	1	USRTblock	1	USRT	97	600000	#ff0000	10pct	1	50pct	50pct	5000	494263	499282	493932	57	499652	370	0	1	95
6.1.1	win	2020-04-21	19:47:41	1	1	1	USRTblock	1	USRT	98	600000	#ff0000	10pct	1	50pct	50pct	5000	499656	504665	499282	57	505061	396	0	1	96
6.1.1	win	2020-04-21	19:47:41	1	1	1	USRTblock	1	USRT	99	600000	#ff0000	10pct	1	50pct	50pct	7000	505064	512081	504665	57	512382	301	0	1	97
6.1.1	win	2020-04-21	19:47:41	1	1	1	USRTblock	1	USRT	100	600000	#ff0000	10pct	1	50pct	50pct	5000	512385	517397	512081	57	517683	286	0	1	98
6.1.1	win	2020-04-21	19:47:41	1	1	1	USRTblock	1	USRT	101	600000	#ff0000	10pct	1	50pct	50pct	3000	517687	520696	517397	57	521225	529	0	1	99
6.1.1	win	2020-04-21	19:47:41	1	1	1	USRTblock	1	USRT	102	600000	#ff0000	10pct	1	50pct	50pct	6000	521228	527246	520696	57	527549	303	0	1	100
6.1.1	win	2020-04-21	19:47:41	1	1	1	USRTblock	1	USRT	103	600000	#ff0000	10pct	1	50pct	50pct	2000	527553	529562	527246	57	530494	932	0	1	101
6.1.1	win	2020-04-21	19:47:41	1	1	1	USRTblock	1	USRT	104	600000	#ff0000	10pct	1	50pct	50pct	4000	530499	534512	529562	57	534823	311	0	1	102
6.1.1	win	2020-04-21	19:47:41	1	1	1	USRTblock	1	USRT	105	600000	#ff0000	10pct	1	50pct	50pct	8000	534827	542844	534512	57	543109	265	0	1	103
6.1.1	win	2020-04-21	19:47:41	1	1	1	USRTblock	1	USRT	106	600000	#ff0000	10pct	1	50pct	50pct	5000	543113	548127	542844	57	548446	319	0	1	104
6.1.1	win	2020-04-21	19:47:41	1	1	1	USRTblock	1	USRT	107	600000	#ff0000	10pct	1	50pct	50pct	6000	548449	554460	548127	57	554727	267	0	1	105
6.1.1	win	2020-04-21	19:47:41	1	1	1	USRTblock	1	USRT	108	600000	#ff0000	10pct	1	50pct	50pct	2000	554731	556742	554460	57	557158	416	0	1	106
6.1.1	win	2020-04-21	19:47:41	1	1	1	USRTblock	1	USRT	109	600000	#ff0000	10pct	1	50pct	50pct	4000	557161	561175	556742	57	561555	380	0	1	107
6.1.1	win	2020-04-21	19:47:41	1	1	1	USRTblock	1	USRT	110	600000	#ff0000	10pct	1	50pct	50pct	7000	561558	568575	561175	57	568818	243	0	1	108
6.1.1	win	2020-04-21	19:47:41	1	1	1	USRTblock	1	USRT	111	600000	#ff0000	10pct	1	50pct	50pct	7000	568822	575841	568575	57	576072	231	0	1	109
6.1.1	win	2020-04-21	19:47:41	1	1	1	USRTblock	1	USRT	112	600000	#ff0000	10pct	1	50pct	50pct	6000	576076	582090	575841	57	582395	305	0	1	110
6.1.1	win	2020-04-21	19:47:41	1	1	1	USRTblock	1	USRT	113	600000	#ff0000	10pct	1	50pct	50pct	6000	582399	588406	582090	57	588656	250	0	1	111
6.1.1	win	2020-04-21	19:47:41	1	1	1	USRTblock	1	USRT	114	600000	#ff0000	10pct	1	50pct	50pct	4000	588660	592672	588406	57	593235	563	0	1	112
6.1.1	win	2020-04-21	19:47:41	1	1	1	USRTblock	1	USRT	115	600000	#ff0000	10pct	1	50pct	50pct	6000	593238	599255	592672	57	599550	295	0	1	113
6.1.1	win	2020-04-21	19:47:41	1	1	1	USRTblock	1	USRT	116	600000	#ff0000	10pct	1	50pct	50pct	6000	599555	-1	599255	0	599715	0	1	2	114
