build	computer.platform	date	time	subject	group	sessionid	blockcode	blocknum	trialcode	trialnum	testduration	targetcolor	targetsize	fixed	targetx	targety	stiminterval	trialStart	shape.targetcircle.timestamp	lastCircleTimestamp	response	rt_elapsed	rt	EarlyResponse	countEarlyResponses	countResponses
6.1.1	win	2020-04-03	19:22:29	1	1	1	USRTblock	1	USRT	3	600000	#ff0000	10pct	1	50pct	50pct	6000	3296	9316	2514	57	9600	284	0	0	1
6.1.1	win	2020-04-03	19:22:29	1	1	1	USRTblock	1	USRT	4	600000	#ff0000	10pct	1	50pct	50pct	2000	9612	11616	9316	57	11932	316	0	0	2
6.1.1	win	2020-04-03	19:22:29	1	1	1	USRTblock	1	USRT	5	600000	#ff0000	10pct	1	50pct	50pct	3000	11936	14950	11616	57	15253	303	0	0	3
6.1.1	win	2020-04-03	19:22:29	1	1	1	USRTblock	1	USRT	6	600000	#ff0000	10pct	1	50pct	50pct	3000	15256	18266	14950	57	18538	272	0	0	4
6.1.1	win	2020-04-03	19:22:29	1	1	1	USRTblock	1	USRT	7	600000	#ff0000	10pct	1	50pct	50pct	5000	18542	23549	18266	57	23820	271	0	0	5
6.1.1	win	2020-04-03	19:22:29	1	1	1	USRTblock	1	USRT	8	600000	#ff0000	10pct	1	50pct	50pct	5000	23824	28832	23549	57	29109	277	0	0	6
6.1.1	win	2020-04-03	19:22:29	1	1	1	USRTblock	1	USRT	9	600000	#ff0000	10pct	1	50pct	50pct	3000	29113	32131	28832	57	32519	388	0	0	7
6.1.1	win	2020-04-03	19:22:29	1	1	1	USRTblock	1	USRT	10	600000	#ff0000	10pct	1	50pct	50pct	5000	32523	37531	32131	57	37764	233	0	0	8
6.1.1	win	2020-04-03	19:22:29	1	1	1	USRTblock	1	USRT	11	600000	#ff0000	10pct	1	50pct	50pct	7000	37767	44780	37531	57	45037	257	0	0	9
6.1.1	win	2020-04-03	19:22:29	1	1	1	USRTblock	1	USRT	12	600000	#ff0000	10pct	1	50pct	50pct	3000	45040	48046	44780	57	48465	419	0	0	10
6.1.1	win	2020-04-03	19:22:29	1	1	1	USRTblock	1	USRT	13	600000	#ff0000	10pct	1	50pct	50pct	2000	48470	50479	48046	57	50900	421	0	0	11
6.1.1	win	2020-04-03	19:22:29	1	1	1	USRTblock	1	USRT	14	600000	#ff0000	10pct	1	50pct	50pct	4000	50904	54912	50479	57	55211	299	0	0	12
6.1.1	win	2020-04-03	19:22:29	1	1	1	USRTblock	1	USRT	15	600000	#ff0000	10pct	1	50pct	50pct	5000	55214	60228	54912	57	60570	342	0	0	13
6.1.1	win	2020-04-03	19:22:29	1	1	1	USRTblock	1	USRT	16	600000	#ff0000	10pct	1	50pct	50pct	7000	60573	67578	60228	57	67920	342	0	0	14
6.1.1	win	2020-04-03	19:22:29	1	1	1	USRTblock	1	USRT	17	600000	#ff0000	10pct	1	50pct	50pct	8000	67925	75944	67578	57	76340	396	0	0	15
6.1.1	win	2020-04-03	19:22:29	1	1	1	USRTblock	1	USRT	18	600000	#ff0000	10pct	1	50pct	50pct	4000	76344	80360	75944	57	80678	318	0	0	16
6.1.1	win	2020-04-03	19:22:29	1	1	1	USRTblock	1	USRT	19	600000	#ff0000	10pct	1	50pct	50pct	3000	80681	83693	80360	57	84040	347	0	0	17
6.1.1	win	2020-04-03	19:22:29	1	1	1	USRTblock	1	USRT	20	600000	#ff0000	10pct	1	50pct	50pct	2000	84045	86059	83693	57	86411	352	0	0	18
6.1.1	win	2020-04-03	19:22:29	1	1	1	USRTblock	1	USRT	21	600000	#ff0000	10pct	1	50pct	50pct	3000	86416	89426	86059	57	89752	326	0	0	19
6.1.1	win	2020-04-03	19:22:29	1	1	1	USRTblock	1	USRT	22	600000	#ff0000	10pct	1	50pct	50pct	3000	89755	92775	89426	57	93229	454	0	0	20
6.1.1	win	2020-04-03	19:22:29	1	1	1	USRTblock	1	USRT	23	600000	#ff0000	10pct	1	50pct	50pct	3000	93232	96242	92775	57	96557	315	0	0	21
6.1.1	win	2020-04-03	19:22:29	1	1	1	USRTblock	1	USRT	24	600000	#ff0000	10pct	1	50pct	50pct	7000	96562	103574	96242	57	104015	441	0	0	22
6.1.1	win	2020-04-03	19:22:29	1	1	1	USRTblock	1	USRT	25	600000	#ff0000	10pct	1	50pct	50pct	8000	104019	112023	103574	57	112467	444	0	0	23
6.1.1	win	2020-04-03	19:22:29	1	1	1	USRTblock	1	USRT	26	600000	#ff0000	10pct	1	50pct	50pct	2000	112470	114490	112023	57	114848	358	0	0	24
6.1.1	win	2020-04-03	19:22:29	1	1	1	USRTblock	1	USRT	27	600000	#ff0000	10pct	1	50pct	50pct	4000	114851	118856	114490	57	119229	373	0	0	25
6.1.1	win	2020-04-03	19:22:29	1	1	1	USRTblock	1	USRT	28	600000	#ff0000	10pct	1	50pct	50pct	3000	119233	122239	118856	57	122572	333	0	0	26
6.1.1	win	2020-04-03	19:22:29	1	1	1	USRTblock	1	USRT	29	600000	#ff0000	10pct	1	50pct	50pct	2000	122575	124589	122239	57	124858	269	0	0	27
6.1.1	win	2020-04-03	19:22:29	1	1	1	USRTblock	1	USRT	30	600000	#ff0000	10pct	1	50pct	50pct	2000	124862	126871	124589	57	127159	288	0	0	28
6.1.1	win	2020-04-03	19:22:29	1	1	1	USRTblock	1	USRT	31	600000	#ff0000	10pct	1	50pct	50pct	7000	127162	134172	126871	57	134489	317	0	0	29
6.1.1	win	2020-04-03	19:22:29	1	1	1	USRTblock	1	USRT	32	600000	#ff0000	10pct	1	50pct	50pct	4000	134493	138504	134172	57	138763	259	0	0	30
6.1.1	win	2020-04-03	19:22:29	1	1	1	USRTblock	1	USRT	33	600000	#ff0000	10pct	1	50pct	50pct	5000	138767	143787	138504	57	144044	257	0	0	31
6.1.1	win	2020-04-03	19:22:29	1	1	1	USRTblock	1	USRT	34	600000	#ff0000	10pct	1	50pct	50pct	8000	144048	152053	143787	57	152355	302	0	0	32
6.1.1	win	2020-04-03	19:22:29	1	1	1	USRTblock	1	USRT	35	600000	#ff0000	10pct	1	50pct	50pct	2000	152358	154369	152053	57	154872	503	0	0	33
6.1.1	win	2020-04-03	19:22:29	1	1	1	USRTblock	1	USRT	36	600000	#ff0000	10pct	1	50pct	50pct	8000	154875	162885	154369	57	163172	287	0	0	34
6.1.1	win	2020-04-03	19:22:29	1	1	1	USRTblock	1	USRT	37	600000	#ff0000	10pct	1	50pct	50pct	7000	163176	170185	162885	57	170480	295	0	0	35
6.1.1	win	2020-04-03	19:22:29	1	1	1	USRTblock	1	USRT	38	600000	#ff0000	10pct	1	50pct	50pct	4000	170484	174500	170185	57	174827	327	0	0	36
6.1.1	win	2020-04-03	19:22:29	1	1	1	USRTblock	1	USRT	39	600000	#ff0000	10pct	1	50pct	50pct	7000	174830	181850	174500	57	182119	269	0	0	37
6.1.1	win	2020-04-03	19:22:29	1	1	1	USRTblock	1	USRT	40	600000	#ff0000	10pct	1	50pct	50pct	7000	182123	189132	181850	57	189399	267	0	0	38
6.1.1	win	2020-04-03	19:22:29	1	1	1	USRTblock	1	USRT	41	600000	#ff0000	10pct	1	50pct	50pct	5000	189404	194416	189132	57	194675	259	0	0	39
6.1.1	win	2020-04-03	19:22:29	1	1	1	USRTblock	1	USRT	42	600000	#ff0000	10pct	1	50pct	50pct	3000	194679	197698	194416	57	198050	352	0	0	40
6.1.1	win	2020-04-03	19:22:29	1	1	1	USRTblock	1	USRT	43	600000	#ff0000	10pct	1	50pct	50pct	4000	198054	202064	197698	57	202373	309	0	0	41
6.1.1	win	2020-04-03	19:22:29	1	1	1	USRTblock	1	USRT	44	600000	#ff0000	10pct	1	50pct	50pct	2000	202377	204397	202064	57	204751	354	0	0	42
6.1.1	win	2020-04-03	19:22:29	1	1	1	USRTblock	1	USRT	45	600000	#ff0000	10pct	1	50pct	50pct	3000	204754	207763	204397	57	208126	363	0	0	43
6.1.1	win	2020-04-03	19:22:29	1	1	1	USRTblock	1	USRT	46	600000	#ff0000	10pct	1	50pct	50pct	6000	208131	214147	207763	57	214394	247	0	0	44
6.1.1	win	2020-04-03	19:22:29	1	1	1	USRTblock	1	USRT	47	600000	#ff0000	10pct	1	50pct	50pct	3000	214398	217413	214147	57	217695	282	0	0	45
6.1.1	win	2020-04-03	19:22:29	1	1	1	USRTblock	1	USRT	48	600000	#ff0000	10pct	1	50pct	50pct	7000	217701	224712	217413	57	225004	292	0	0	46
6.1.1	win	2020-04-03	19:22:29	1	1	1	USRTblock	1	USRT	49	600000	#ff0000	10pct	1	50pct	50pct	7000	225007	232028	224712	57	232314	286	0	0	47
6.1.1	win	2020-04-03	19:22:29	1	1	1	USRTblock	1	USRT	50	600000	#ff0000	10pct	1	50pct	50pct	3000	232318	235327	232028	57	235645	318	0	0	48
6.1.1	win	2020-04-03	19:22:29	1	1	1	USRTblock	1	USRT	51	600000	#ff0000	10pct	1	50pct	50pct	5000	235649	240661	235327	57	240905	244	0	0	49
6.1.1	win	2020-04-03	19:22:29	1	1	1	USRTblock	1	USRT	52	600000	#ff0000	10pct	1	50pct	50pct	8000	240908	248927	240661	57	249178	251	0	0	50
6.1.1	win	2020-04-03	19:22:29	1	1	1	USRTblock	1	USRT	53	600000	#ff0000	10pct	1	50pct	50pct	8000	249183	257193	248927	57	257625	432	0	0	51
6.1.1	win	2020-04-03	19:22:29	1	1	1	USRTblock	1	USRT	54	600000	#ff0000	10pct	1	50pct	50pct	5000	257628	262642	257193	57	263084	442	0	0	52
6.1.1	win	2020-04-03	19:22:29	1	1	1	USRTblock	1	USRT	55	600000	#ff0000	10pct	1	50pct	50pct	2000	263089	265108	262642	57	265507	399	0	0	53
6.1.1	win	2020-04-03	19:22:29	1	1	1	USRTblock	1	USRT	56	600000	#ff0000	10pct	1	50pct	50pct	3000	265511	268524	265108	57	268864	340	0	0	54
6.1.1	win	2020-04-03	19:22:29	1	1	1	USRTblock	1	USRT	57	600000	#ff0000	10pct	1	50pct	50pct	6000	268867	274874	268524	57	275172	298	0	0	55
6.1.1	win	2020-04-03	19:22:29	1	1	1	USRTblock	1	USRT	58	600000	#ff0000	10pct	1	50pct	50pct	7000	275176	282190	274874	57	282469	279	0	0	56
6.1.1	win	2020-04-03	19:22:29	1	1	1	USRTblock	1	USRT	59	600000	#ff0000	10pct	1	50pct	50pct	8000	282474	290489	282190	57	290796	307	0	0	57
6.1.1	win	2020-04-03	19:22:29	1	1	1	USRTblock	1	USRT	60	600000	#ff0000	10pct	1	50pct	50pct	8000	290799	298805	290489	57	299154	349	0	0	58
6.1.1	win	2020-04-03	19:22:29	1	1	1	USRTblock	1	USRT	61	600000	#ff0000	10pct	1	50pct	50pct	5000	299158	304171	298805	57	304505	334	0	0	59
6.1.1	win	2020-04-03	19:22:29	1	1	1	USRTblock	1	USRT	62	600000	#ff0000	10pct	1	50pct	50pct	6000	304510	310521	304171	57	310812	291	0	0	60
6.1.1	win	2020-04-03	19:22:29	1	1	1	USRTblock	1	USRT	63	600000	#ff0000	10pct	1	50pct	50pct	4000	310815	314836	310521	57	315114	278	0	0	61
6.1.1	win	2020-04-03	19:22:29	1	1	1	USRTblock	1	USRT	64	600000	#ff0000	10pct	1	50pct	50pct	5000	315118	320135	314836	57	320368	233	0	0	62
6.1.1	win	2020-04-03	19:22:29	1	1	1	USRTblock	1	USRT	65	600000	#ff0000	10pct	1	50pct	50pct	7000	320371	327385	320135	57	327662	277	0	0	63
6.1.1	win	2020-04-03	19:22:29	1	1	1	USRTblock	1	USRT	66	600000	#ff0000	10pct	1	50pct	50pct	5000	327666	332685	327385	57	332983	298	0	0	64
6.1.1	win	2020-04-03	19:22:29	1	1	1	USRTblock	1	USRT	67	600000	#ff0000	10pct	1	50pct	50pct	2000	332986	335001	332685	57	335349	348	0	0	65
6.1.1	win	2020-04-03	19:22:29	1	1	1	USRTblock	1	USRT	68	600000	#ff0000	10pct	1	50pct	50pct	5000	335352	340367	335001	57	340658	291	0	0	66
6.1.1	win	2020-04-03	19:22:29	1	1	1	USRTblock	1	USRT	69	600000	#ff0000	10pct	1	50pct	50pct	8000	340661	348667	340367	57	348977	310	0	0	67
6.1.1	win	2020-04-03	19:22:29	1	1	1	USRTblock	1	USRT	70	600000	#ff0000	10pct	1	50pct	50pct	6000	348980	354999	348667	57	355267	268	0	0	68
6.1.1	win	2020-04-03	19:22:29	1	1	1	USRTblock	1	USRT	71	600000	#ff0000	10pct	1	50pct	50pct	6000	355271	361282	354999	57	361533	251	0	0	69
6.1.1	win	2020-04-03	19:22:29	1	1	1	USRTblock	1	USRT	72	600000	#ff0000	10pct	1	50pct	50pct	2000	361537	363548	361282	57	363835	287	0	0	70
6.1.1	win	2020-04-03	19:22:29	1	1	1	USRTblock	1	USRT	73	600000	#ff0000	10pct	1	50pct	50pct	7000	363838	370847	363548	57	371104	257	0	0	71
6.1.1	win	2020-04-03	19:22:29	1	1	1	USRTblock	1	USRT	74	600000	#ff0000	10pct	1	50pct	50pct	4000	371107	375114	370847	57	375381	267	0	0	72
6.1.1	win	2020-04-03	19:22:29	1	1	1	USRTblock	1	USRT	75	600000	#ff0000	10pct	1	50pct	50pct	3000	375385	378397	375114	57	378682	285	0	0	73
6.1.1	win	2020-04-03	19:22:29	1	1	1	USRTblock	1	USRT	76	600000	#ff0000	10pct	1	50pct	50pct	7000	378687	385696	378397	57	385972	276	0	0	74
6.1.1	win	2020-04-03	19:22:29	1	1	1	USRTblock	1	USRT	77	600000	#ff0000	10pct	1	50pct	50pct	3000	385975	388996	385696	57	389316	320	0	0	75
6.1.1	win	2020-04-03	19:22:29	1	1	1	USRTblock	1	USRT	78	600000	#ff0000	10pct	1	50pct	50pct	5000	389321	394329	388996	57	394593	264	0	0	76
6.1.1	win	2020-04-03	19:22:29	1	1	1	USRTblock	1	USRT	79	600000	#ff0000	10pct	1	50pct	50pct	8000	394597	402612	394329	57	402850	238	0	0	77
6.1.1	win	2020-04-03	19:22:29	1	1	1	USRTblock	1	USRT	80	600000	#ff0000	10pct	1	50pct	50pct	8000	402854	410876	402612	57	411208	332	0	0	78
6.1.1	win	2020-04-03	19:22:29	1	1	1	USRTblock	1	USRT	81	600000	#ff0000	10pct	1	50pct	50pct	3000	411212	414226	410876	57	414644	418	0	0	79
6.1.1	win	2020-04-03	19:22:29	1	1	1	USRTblock	1	USRT	82	600000	#ff0000	10pct	1	50pct	50pct	2000	414648	416660	414226	57	417083	423	0	0	80
6.1.1	win	2020-04-03	19:22:29	1	1	1	USRTblock	1	USRT	83	600000	#ff0000	10pct	1	50pct	50pct	4000	417087	421093	416660	57	421398	305	0	0	81
6.1.1	win	2020-04-03	19:22:29	1	1	1	USRTblock	1	USRT	84	600000	#ff0000	10pct	1	50pct	50pct	3000	421402	424408	421093	57	424714	306	0	0	82
6.1.1	win	2020-04-03	19:22:29	1	1	1	USRTblock	1	USRT	85	600000	#ff0000	10pct	1	50pct	50pct	6000	424719	430741	424408	57	431085	344	0	0	83
6.1.1	win	2020-04-03	19:22:29	1	1	1	USRTblock	1	USRT	86	600000	#ff0000	10pct	1	50pct	50pct	3000	431088	434108	430741	57	434436	328	0	0	84
6.1.1	win	2020-04-03	19:22:29	1	1	1	USRTblock	1	USRT	87	600000	#ff0000	10pct	1	50pct	50pct	7000	434440	441457	434108	57	441780	323	0	0	85
6.1.1	win	2020-04-03	19:22:29	1	1	1	USRTblock	1	USRT	88	600000	#ff0000	10pct	1	50pct	50pct	6000	441784	447790	441457	57	448071	281	0	0	86
6.1.1	win	2020-04-03	19:22:29	1	1	1	USRTblock	1	USRT	89	600000	#ff0000	10pct	1	50pct	50pct	7000	448074	455088	447790	57	455431	343	0	0	87
6.1.1	win	2020-04-03	19:22:29	1	1	1	USRTblock	1	USRT	90	600000	#ff0000	10pct	1	50pct	50pct	2000	455436	457455	455088	57	457875	420	0	0	88
6.1.1	win	2020-04-03	19:22:29	1	1	1	USRTblock	1	USRT	91	600000	#ff0000	10pct	1	50pct	50pct	2000	457878	459888	457455	57	460206	318	0	0	89
6.1.1	win	2020-04-03	19:22:29	1	1	1	USRTblock	1	USRT	92	600000	#ff0000	10pct	1	50pct	50pct	4000	460210	464221	459888	57	464554	333	0	0	90
6.1.1	win	2020-04-03	19:22:29	1	1	1	USRTblock	1	USRT	93	600000	#ff0000	10pct	1	50pct	50pct	5000	464557	469571	464221	57	469856	285	0	0	91
6.1.1	win	2020-04-03	19:22:29	1	1	1	USRTblock	1	USRT	94	600000	#ff0000	10pct	1	50pct	50pct	5000	469860	474871	469571	57	475169	298	0	0	92
6.1.1	win	2020-04-03	19:22:29	1	1	1	USRTblock	1	USRT	95	600000	#ff0000	10pct	1	50pct	50pct	4000	475172	479187	474871	57	479514	327	0	0	93
6.1.1	win	2020-04-03	19:22:29	1	1	1	USRTblock	1	USRT	96	600000	#ff0000	10pct	1	50pct	50pct	7000	479518	486537	479187	57	486897	360	0	0	94
6.1.1	win	2020-04-03	19:22:29	1	1	1	USRTblock	1	USRT	97	600000	#ff0000	10pct	1	50pct	50pct	8000	486902	494918	486537	57	495238	320	0	0	95
6.1.1	win	2020-04-03	19:22:29	1	1	1	USRTblock	1	USRT	98	600000	#ff0000	10pct	1	50pct	50pct	7000	495242	502251	494918	57	502500	249	0	0	96
6.1.1	win	2020-04-03	19:22:29	1	1	1	USRTblock	1	USRT	99	600000	#ff0000	10pct	1	50pct	50pct	2000	502504	504517	502251	57	504892	375	0	0	97
6.1.1	win	2020-04-03	19:22:29	1	1	1	USRTblock	1	USRT	100	600000	#ff0000	10pct	1	50pct	50pct	8000	504896	512917	504517	57	513161	244	0	0	98
6.1.1	win	2020-04-03	19:22:29	1	1	1	USRTblock	1	USRT	101	600000	#ff0000	10pct	1	50pct	50pct	4000	513164	517183	512917	57	517517	334	0	0	99
6.1.1	win	2020-04-03	19:22:29	1	1	1	USRTblock	1	USRT	102	600000	#ff0000	10pct	1	50pct	50pct	4000	517520	521532	517183	57	521793	261	0	0	100
6.1.1	win	2020-04-03	19:22:29	1	1	1	USRTblock	1	USRT	103	600000	#ff0000	10pct	1	50pct	50pct	8000	521797	529815	521532	57	530085	270	0	0	101
6.1.1	win	2020-04-03	19:22:29	1	1	1	USRTblock	1	USRT	104	600000	#ff0000	10pct	1	50pct	50pct	8000	530088	538098	529815	57	538396	298	0	0	102
6.1.1	win	2020-04-03	19:22:29	1	1	1	USRTblock	1	USRT	105	600000	#ff0000	10pct	1	50pct	50pct	8000	538399	546414	538098	57	546699	285	0	0	103
6.1.1	win	2020-04-03	19:22:29	1	1	1	USRTblock	1	USRT	106	600000	#ff0000	10pct	1	50pct	50pct	8000	546703	554712	546414	57	555057	345	0	0	104
6.1.1	win	2020-04-03	19:22:29	1	1	1	USRTblock	1	USRT	107	600000	#ff0000	10pct	1	50pct	50pct	6000	555062	561078	554712	57	561431	353	0	0	105
6.1.1	win	2020-04-03	19:22:29	1	1	1	USRTblock	1	USRT	108	600000	#ff0000	10pct	1	50pct	50pct	2000	561434	563444	561078	57	563810	366	0	0	106
6.1.1	win	2020-04-03	19:22:29	1	1	1	USRTblock	1	USRT	109	600000	#ff0000	10pct	1	50pct	50pct	7000	563814	570827	563444	57	571374	547	0	0	107
6.1.1	win	2020-04-03	19:22:29	1	1	1	USRTblock	1	USRT	110	600000	#ff0000	10pct	1	50pct	50pct	6000	571378	577393	570827	57	577775	382	0	0	108
6.1.1	win	2020-04-03	19:22:29	1	1	1	USRTblock	1	USRT	111	600000	#ff0000	10pct	1	50pct	50pct	8000	577779	585793	577393	57	586077	284	0	0	109
6.1.1	win	2020-04-03	19:22:29	1	1	1	USRTblock	1	USRT	112	600000	#ff0000	10pct	1	50pct	50pct	7000	586081	593092	585793	57	593449	357	0	0	110
6.1.1	win	2020-04-03	19:22:29	1	1	1	USRTblock	1	USRT	113	600000	#ff0000	10pct	1	50pct	50pct	3000	593453	596475	593092	57	596899	424	0	0	111
6.1.1	win	2020-04-03	19:22:29	1	1	1	USRTblock	1	USRT	114	600000	#ff0000	10pct	1	50pct	50pct	2000	596902	598907	596475	57	599270	363	0	0	112
6.1.1	win	2020-04-03	19:22:29	1	1	1	USRTblock	1	USRT	115	600000	#ff0000	10pct	1	50pct	50pct	7000	599273	-1	598907	0	599321	0	1	1	113
