build	computer.platform	date	time	subject	group	sessionid	blockcode	blocknum	trialcode	trialnum	testduration	targetcolor	targetsize	fixed	targetx	targety	stiminterval	trialStart	shape.targetcircle.timestamp	lastCircleTimestamp	response	rt_elapsed	rt	EarlyResponse	countEarlyResponses	countResponses
6.1.1	win	2020-04-15	07:46:00	1	1	1	USRTblock	1	USRT	3	600000	#ff0000	10pct	1	50pct	50pct	2000	3570	5581	2845	57	5818	237	0	0	1
6.1.1	win	2020-04-15	07:46:00	1	1	1	USRTblock	1	USRT	4	600000	#ff0000	10pct	1	50pct	50pct	8000	5841	13848	5581	57	14116	268	0	0	2
6.1.1	win	2020-04-15	07:46:00	1	1	1	USRTblock	1	USRT	5	600000	#ff0000	10pct	1	50pct	50pct	7000	14120	21130	13848	57	21385	255	0	0	3
6.1.1	win	2020-04-15	07:46:00	1	1	1	USRTblock	1	USRT	6	600000	#ff0000	10pct	1	50pct	50pct	6000	21390	27396	21130	57	27654	258	0	0	4
6.1.1	win	2020-04-15	07:46:00	1	1	1	USRTblock	1	USRT	7	600000	#ff0000	10pct	1	50pct	50pct	5000	27658	32679	27396	57	32986	307	0	0	5
6.1.1	win	2020-04-15	07:46:00	1	1	1	USRTblock	1	USRT	8	600000	#ff0000	10pct	1	50pct	50pct	5000	32990	37995	32679	57	38303	308	0	0	6
6.1.1	win	2020-04-15	07:46:00	1	1	1	USRTblock	1	USRT	9	600000	#ff0000	10pct	1	50pct	50pct	6000	38306	44328	37995	57	44627	299	0	0	7
6.1.1	win	2020-04-15	07:46:00	1	1	1	USRTblock	1	USRT	10	600000	#ff0000	10pct	1	50pct	50pct	6000	44631	50644	44328	57	50931	287	0	0	8
6.1.1	win	2020-04-15	07:46:00	1	1	1	USRTblock	1	USRT	11	600000	#ff0000	10pct	1	50pct	50pct	4000	50936	54943	50644	57	55190	247	0	0	9
6.1.1	win	2020-04-15	07:46:00	1	1	1	USRTblock	1	USRT	12	600000	#ff0000	10pct	1	50pct	50pct	8000	55195	63210	54943	57	63484	274	0	0	10
6.1.1	win	2020-04-15	07:46:00	1	1	1	USRTblock	1	USRT	13	600000	#ff0000	10pct	1	50pct	50pct	6000	63488	69509	63210	57	69786	277	0	0	11
6.1.1	win	2020-04-15	07:46:00	1	1	1	USRTblock	1	USRT	14	600000	#ff0000	10pct	1	50pct	50pct	7000	69790	76808	69509	57	77132	324	0	0	12
6.1.1	win	2020-04-15	07:46:00	1	1	1	USRTblock	1	USRT	15	600000	#ff0000	10pct	1	50pct	50pct	8000	77136	85141	76808	57	85429	288	0	0	13
6.1.1	win	2020-04-15	07:46:00	1	1	1	USRTblock	1	USRT	16	600000	#ff0000	10pct	1	50pct	50pct	3000	85433	88440	85141	57	88738	298	0	0	14
6.1.1	win	2020-04-15	07:46:00	1	1	1	USRTblock	1	USRT	17	600000	#ff0000	10pct	1	50pct	50pct	7000	88742	95756	88440	57	96029	273	0	0	15
6.1.1	win	2020-04-15	07:46:00	1	1	1	USRTblock	1	USRT	18	600000	#ff0000	10pct	1	50pct	50pct	4000	96033	100039	95756	57	100328	289	0	0	16
6.1.1	win	2020-04-15	07:46:00	1	1	1	USRTblock	1	USRT	19	600000	#ff0000	10pct	1	50pct	50pct	4000	100331	104339	100039	57	104601	262	0	0	17
6.1.1	win	2020-04-15	07:46:00	1	1	1	USRTblock	1	USRT	20	600000	#ff0000	10pct	1	50pct	50pct	6000	104605	110622	104339	57	110888	266	0	0	18
6.1.1	win	2020-04-15	07:46:00	1	1	1	USRTblock	1	USRT	21	600000	#ff0000	10pct	1	50pct	50pct	5000	110892	115904	110622	57	116208	304	0	0	19
6.1.1	win	2020-04-15	07:46:00	1	1	1	USRTblock	1	USRT	22	600000	#ff0000	10pct	1	50pct	50pct	8000	116212	124220	115904	57	124565	345	0	0	20
6.1.1	win	2020-04-15	07:46:00	1	1	1	USRTblock	1	USRT	23	600000	#ff0000	10pct	1	50pct	50pct	7000	124569	131586	124220	57	131849	263	0	0	21
6.1.1	win	2020-04-15	07:46:00	1	1	1	USRTblock	1	USRT	24	600000	#ff0000	10pct	1	50pct	50pct	3000	131853	134868	131586	57	135130	262	0	0	22
6.1.1	win	2020-04-15	07:46:00	1	1	1	USRTblock	1	USRT	25	600000	#ff0000	10pct	1	50pct	50pct	2000	135133	137153	134868	57	137551	398	0	0	23
6.1.1	win	2020-04-15	07:46:00	1	1	1	USRTblock	1	USRT	26	600000	#ff0000	10pct	1	50pct	50pct	7000	137554	144569	137153	57	144855	286	0	0	24
6.1.1	win	2020-04-15	07:46:00	1	1	1	USRTblock	1	USRT	27	600000	#ff0000	10pct	1	50pct	50pct	2000	144858	146868	144569	57	147310	442	0	0	25
6.1.1	win	2020-04-15	07:46:00	1	1	1	USRTblock	1	USRT	28	600000	#ff0000	10pct	1	50pct	50pct	5000	147314	152334	146868	57	152665	331	0	0	26
6.1.1	win	2020-04-15	07:46:00	1	1	1	USRTblock	1	USRT	29	600000	#ff0000	10pct	1	50pct	50pct	2000	152669	154684	152334	57	155095	411	0	0	27
6.1.1	win	2020-04-15	07:46:00	1	1	1	USRTblock	1	USRT	30	600000	#ff0000	10pct	1	50pct	50pct	8000	155098	163117	154684	57	163425	308	0	0	28
6.1.1	win	2020-04-15	07:46:00	1	1	1	USRTblock	1	USRT	31	600000	#ff0000	10pct	1	50pct	50pct	6000	163429	169449	163117	57	169736	287	0	0	29
6.1.1	win	2020-04-15	07:46:00	1	1	1	USRTblock	1	USRT	32	600000	#ff0000	10pct	1	50pct	50pct	6000	169740	175748	169449	57	176006	258	0	0	30
6.1.1	win	2020-04-15	07:46:00	1	1	1	USRTblock	1	USRT	33	600000	#ff0000	10pct	1	50pct	50pct	3000	176010	179031	175748	57	179406	375	0	0	31
6.1.1	win	2020-04-15	07:46:00	1	1	1	USRTblock	1	USRT	34	600000	#ff0000	10pct	1	50pct	50pct	2000	179410	181430	179031	57	181787	357	0	0	32
6.1.1	win	2020-04-15	07:46:00	1	1	1	USRTblock	1	USRT	35	600000	#ff0000	10pct	1	50pct	50pct	2000	181790	183797	181430	57	184107	310	0	0	33
6.1.1	win	2020-04-15	07:46:00	1	1	1	USRTblock	1	USRT	36	600000	#ff0000	10pct	1	50pct	50pct	8000	184112	192130	183797	57	192415	285	0	0	34
6.1.1	win	2020-04-15	07:46:00	1	1	1	USRTblock	1	USRT	37	600000	#ff0000	10pct	1	50pct	50pct	2000	192418	194429	192130	57	194746	317	0	0	35
6.1.1	win	2020-04-15	07:46:00	1	1	1	USRTblock	1	USRT	38	600000	#ff0000	10pct	1	50pct	50pct	7000	194749	201762	194429	57	202074	312	0	0	36
6.1.1	win	2020-04-15	07:46:00	1	1	1	USRTblock	1	USRT	39	600000	#ff0000	10pct	1	50pct	50pct	2000	202078	204095	201762	57	204441	346	0	0	37
6.1.1	win	2020-04-15	07:46:00	1	1	1	USRTblock	1	USRT	40	600000	#ff0000	10pct	1	50pct	50pct	2000	204445	206461	204095	57	206856	395	0	0	38
6.1.1	win	2020-04-15	07:46:00	1	1	1	USRTblock	1	USRT	41	600000	#ff0000	10pct	1	50pct	50pct	4000	206860	210878	206461	57	211139	261	0	0	39
6.1.1	win	2020-04-15	07:46:00	1	1	1	USRTblock	1	USRT	42	600000	#ff0000	10pct	1	50pct	50pct	7000	211142	218161	210878	57	218450	289	0	0	40
6.1.1	win	2020-04-15	07:46:00	1	1	1	USRTblock	1	USRT	43	600000	#ff0000	10pct	1	50pct	50pct	7000	218454	225460	218161	57	225774	314	0	0	41
6.1.1	win	2020-04-15	07:46:00	1	1	1	USRTblock	1	USRT	44	600000	#ff0000	10pct	1	50pct	50pct	2000	225778	227793	225460	57	228193	400	0	0	42
6.1.1	win	2020-04-15	07:46:00	1	1	1	USRTblock	1	USRT	45	600000	#ff0000	10pct	1	50pct	50pct	7000	228197	235209	227793	57	235319	110	0	0	43
6.1.1	win	2020-04-15	07:46:00	1	1	1	USRTblock	1	USRT	46	600000	#ff0000	10pct	1	50pct	50pct	3000	235322	238342	235209	57	238741	399	0	0	44
6.1.1	win	2020-04-15	07:46:00	1	1	1	USRTblock	1	USRT	47	600000	#ff0000	10pct	1	50pct	50pct	8000	238745	246758	238342	57	247055	297	0	0	45
6.1.1	win	2020-04-15	07:46:00	1	1	1	USRTblock	1	USRT	48	600000	#ff0000	10pct	1	50pct	50pct	2000	247058	249074	246758	57	249366	292	0	0	46
6.1.1	win	2020-04-15	07:46:00	1	1	1	USRTblock	1	USRT	49	600000	#ff0000	10pct	1	50pct	50pct	2000	249371	251390	249074	57	251733	343	0	0	47
6.1.1	win	2020-04-15	07:46:00	1	1	1	USRTblock	1	USRT	50	600000	#ff0000	10pct	1	50pct	50pct	3000	251736	254757	251390	57	255208	451	0	0	48
6.1.1	win	2020-04-15	07:46:00	1	1	1	USRTblock	1	USRT	51	600000	#ff0000	10pct	1	50pct	50pct	6000	255212	261223	254757	57	261516	293	0	0	49
6.1.1	win	2020-04-15	07:46:00	1	1	1	USRTblock	1	USRT	52	600000	#ff0000	10pct	1	50pct	50pct	6000	261519	-1	261223	57	264700	0	1	1	50
6.1.1	win	2020-04-15	07:46:00	1	1	1	USRTblock	1	USRT	53	600000	#ff0000	10pct	1	50pct	50pct	3000	264704	267722	-1	57	268020	298	0	1	51
6.1.1	win	2020-04-15	07:46:00	1	1	1	USRTblock	1	USRT	54	600000	#ff0000	10pct	1	50pct	50pct	6000	268024	274039	267722	57	274345	306	0	1	52
6.1.1	win	2020-04-15	07:46:00	1	1	1	USRTblock	1	USRT	55	600000	#ff0000	10pct	1	50pct	50pct	2000	274349	276354	274039	57	276770	416	0	1	53
6.1.1	win	2020-04-15	07:46:00	1	1	1	USRTblock	1	USRT	56	600000	#ff0000	10pct	1	50pct	50pct	4000	276774	280788	276354	57	281224	436	0	1	54
6.1.1	win	2020-04-15	07:46:00	1	1	1	USRTblock	1	USRT	57	600000	#ff0000	10pct	1	50pct	50pct	7000	281227	288237	280788	57	288585	348	0	1	55
6.1.1	win	2020-04-15	07:46:00	1	1	1	USRTblock	1	USRT	58	600000	#ff0000	10pct	1	50pct	50pct	7000	288589	295604	288237	57	296110	506	0	1	56
6.1.1	win	2020-04-15	07:46:00	1	1	1	USRTblock	1	USRT	59	600000	#ff0000	10pct	1	50pct	50pct	8000	296113	304119	295604	57	304487	368	0	1	57
6.1.1	win	2020-04-15	07:46:00	1	1	1	USRTblock	1	USRT	60	600000	#ff0000	10pct	1	50pct	50pct	3000	304491	307501	304119	57	307797	296	0	1	58
6.1.1	win	2020-04-15	07:46:00	1	1	1	USRTblock	1	USRT	61	600000	#ff0000	10pct	1	50pct	50pct	8000	307800	315817	307501	57	316195	378	0	1	59
6.1.1	win	2020-04-15	07:46:00	1	1	1	USRTblock	1	USRT	62	600000	#ff0000	10pct	1	50pct	50pct	8000	316198	324217	315817	57	324492	275	0	1	60
6.1.1	win	2020-04-15	07:46:00	1	1	1	USRTblock	1	USRT	63	600000	#ff0000	10pct	1	50pct	50pct	6000	324495	330517	324217	57	330914	397	0	1	61
6.1.1	win	2020-04-15	07:46:00	1	1	1	USRTblock	1	USRT	64	600000	#ff0000	10pct	1	50pct	50pct	8000	330918	338933	330517	57	339215	282	0	1	62
6.1.1	win	2020-04-15	07:46:00	1	1	1	USRTblock	1	USRT	65	600000	#ff0000	10pct	1	50pct	50pct	6000	339219	345232	338933	57	345559	327	0	1	63
6.1.1	win	2020-04-15	07:46:00	1	1	1	USRTblock	1	USRT	66	600000	#ff0000	10pct	1	50pct	50pct	5000	345563	350581	345232	57	350871	290	0	1	64
6.1.1	win	2020-04-15	07:46:00	1	1	1	USRTblock	1	USRT	67	600000	#ff0000	10pct	1	50pct	50pct	5000	350875	355880	350581	57	356207	327	0	1	65
6.1.1	win	2020-04-15	07:46:00	1	1	1	USRTblock	1	USRT	68	600000	#ff0000	10pct	1	50pct	50pct	7000	356210	363230	355880	57	363512	282	0	1	66
6.1.1	win	2020-04-15	07:46:00	1	1	1	USRTblock	1	USRT	69	600000	#ff0000	10pct	1	50pct	50pct	5000	363516	368529	363230	57	368904	375	0	1	67
6.1.1	win	2020-04-15	07:46:00	1	1	1	USRTblock	1	USRT	70	600000	#ff0000	10pct	1	50pct	50pct	5000	368908	373928	368529	57	374292	364	0	1	68
6.1.1	win	2020-04-15	07:46:00	1	1	1	USRTblock	1	USRT	71	600000	#ff0000	10pct	1	50pct	50pct	3000	374295	377311	373928	57	377688	377	0	1	69
6.1.1	win	2020-04-15	07:46:00	1	1	1	USRTblock	1	USRT	72	600000	#ff0000	10pct	1	50pct	50pct	3000	377692	380711	377311	57	380999	288	0	1	70
6.1.1	win	2020-04-15	07:46:00	1	1	1	USRTblock	1	USRT	73	600000	#ff0000	10pct	1	50pct	50pct	3000	381003	384010	380711	57	384357	347	0	1	71
6.1.1	win	2020-04-15	07:46:00	1	1	1	USRTblock	1	USRT	74	600000	#ff0000	10pct	1	50pct	50pct	2000	384360	386376	384010	57	386745	369	0	1	72
6.1.1	win	2020-04-15	07:46:00	1	1	1	USRTblock	1	USRT	75	600000	#ff0000	10pct	1	50pct	50pct	6000	386748	392760	386376	57	393059	299	0	1	73
6.1.1	win	2020-04-15	07:46:00	1	1	1	USRTblock	1	USRT	76	600000	#ff0000	10pct	1	50pct	50pct	7000	393064	-1	392760	57	397915	0	1	2	74
6.1.1	win	2020-04-15	07:46:00	1	1	1	USRTblock	1	USRT	77	600000	#ff0000	10pct	1	50pct	50pct	2000	397918	399925	-1	57	400251	326	0	2	75
6.1.1	win	2020-04-15	07:46:00	1	1	1	USRTblock	1	USRT	78	600000	#ff0000	10pct	1	50pct	50pct	3000	400255	403275	399925	57	403770	495	0	2	76
6.1.1	win	2020-04-15	07:46:00	1	1	1	USRTblock	1	USRT	79	600000	#ff0000	10pct	1	50pct	50pct	4000	403774	-1	403275	57	403855	0	1	3	77
6.1.1	win	2020-04-15	07:46:00	1	1	1	USRTblock	1	USRT	80	600000	#ff0000	10pct	1	50pct	50pct	7000	403859	410875	-1	57	411247	372	0	3	78
6.1.1	win	2020-04-15	07:46:00	1	1	1	USRTblock	1	USRT	81	600000	#ff0000	10pct	1	50pct	50pct	4000	411251	415257	410875	57	415660	403	0	3	79
6.1.1	win	2020-04-15	07:46:00	1	1	1	USRTblock	1	USRT	82	600000	#ff0000	10pct	1	50pct	50pct	6000	415663	421674	415257	57	421990	316	0	3	80
6.1.1	win	2020-04-15	07:46:00	1	1	1	USRTblock	1	USRT	83	600000	#ff0000	10pct	1	50pct	50pct	5000	421994	427007	421674	57	427337	330	0	3	81
6.1.1	win	2020-04-15	07:46:00	1	1	1	USRTblock	1	USRT	84	600000	#ff0000	10pct	1	50pct	50pct	8000	427340	435356	427007	57	435638	282	0	3	82
6.1.1	win	2020-04-15	07:46:00	1	1	1	USRTblock	1	USRT	85	600000	#ff0000	10pct	1	50pct	50pct	2000	435641	437655	435356	57	438236	581	0	3	83
6.1.1	win	2020-04-15	07:46:00	1	1	1	USRTblock	1	USRT	86	600000	#ff0000	10pct	1	50pct	50pct	6000	438240	-1	437655	57	443615	0	1	4	84
6.1.1	win	2020-04-15	07:46:00	1	1	1	USRTblock	1	USRT	87	600000	#ff0000	10pct	1	50pct	50pct	3000	443618	446638	-1	57	447106	468	0	4	85
6.1.1	win	2020-04-15	07:46:00	1	1	1	USRTblock	1	USRT	88	600000	#ff0000	10pct	1	50pct	50pct	3000	447110	450120	446638	57	450460	340	0	4	86
6.1.1	win	2020-04-15	07:46:00	1	1	1	USRTblock	1	USRT	89	600000	#ff0000	10pct	1	50pct	50pct	7000	450464	457470	450120	57	457796	326	0	4	87
6.1.1	win	2020-04-15	07:46:00	1	1	1	USRTblock	1	USRT	90	600000	#ff0000	10pct	1	50pct	50pct	2000	457800	459819	457470	57	460178	359	0	4	88
6.1.1	win	2020-04-15	07:46:00	1	1	1	USRTblock	1	USRT	91	600000	#ff0000	10pct	1	50pct	50pct	4000	460184	464203	459819	57	464582	379	0	4	89
6.1.1	win	2020-04-15	07:46:00	1	1	1	USRTblock	1	USRT	92	600000	#ff0000	10pct	1	50pct	50pct	6000	464585	470603	464203	57	470960	357	0	4	90
6.1.1	win	2020-04-15	07:46:00	1	1	1	USRTblock	1	USRT	93	600000	#ff0000	10pct	1	50pct	50pct	3000	470963	473968	470603	57	474326	358	0	4	91
6.1.1	win	2020-04-15	07:46:00	1	1	1	USRTblock	1	USRT	94	600000	#ff0000	10pct	1	50pct	50pct	5000	474330	479335	473968	57	479699	364	0	4	92
6.1.1	win	2020-04-15	07:46:00	1	1	1	USRTblock	1	USRT	95	600000	#ff0000	10pct	1	50pct	50pct	2000	479703	481717	479335	57	482075	358	0	4	93
6.1.1	win	2020-04-15	07:46:00	1	1	1	USRTblock	1	USRT	96	600000	#ff0000	10pct	1	50pct	50pct	3000	482079	485084	481717	57	485417	333	0	4	94
6.1.1	win	2020-04-15	07:46:00	1	1	1	USRTblock	1	USRT	97	600000	#ff0000	10pct	1	50pct	50pct	8000	485421	493434	485084	57	494137	703	0	4	95
6.1.1	win	2020-04-15	07:46:00	1	1	1	USRTblock	1	USRT	98	600000	#ff0000	10pct	1	50pct	50pct	3000	494142	497149	493434	57	497761	612	0	4	96
6.1.1	win	2020-04-15	07:46:00	1	1	1	USRTblock	1	USRT	99	600000	#ff0000	10pct	1	50pct	50pct	2000	497765	499782	497149	57	500707	925	0	4	97
6.1.1	win	2020-04-15	07:46:00	1	1	1	USRTblock	1	USRT	100	600000	#ff0000	10pct	1	50pct	50pct	7000	500711	507732	499782	57	508175	443	0	4	98
6.1.1	win	2020-04-15	07:46:00	1	1	1	USRTblock	1	USRT	101	600000	#ff0000	10pct	1	50pct	50pct	5000	508179	513198	507732	57	513533	335	0	4	99
6.1.1	win	2020-04-15	07:46:00	1	1	1	USRTblock	1	USRT	102	600000	#ff0000	10pct	1	50pct	50pct	7000	513537	520547	513198	57	520835	288	0	4	100
6.1.1	win	2020-04-15	07:46:00	1	1	1	USRTblock	1	USRT	103	600000	#ff0000	10pct	1	50pct	50pct	3000	520838	523846	520547	57	524419	573	0	4	101
6.1.1	win	2020-04-15	07:46:00	1	1	1	USRTblock	1	USRT	104	600000	#ff0000	10pct	1	50pct	50pct	4000	524423	528429	523846	57	528713	284	0	4	102
6.1.1	win	2020-04-15	07:46:00	1	1	1	USRTblock	1	USRT	105	600000	#ff0000	10pct	1	50pct	50pct	2000	528716	530729	528429	57	531114	385	0	4	103
6.1.1	win	2020-04-15	07:46:00	1	1	1	USRTblock	1	USRT	106	600000	#ff0000	10pct	1	50pct	50pct	7000	531119	538129	530729	57	538487	358	0	4	104
6.1.1	win	2020-04-15	07:46:00	1	1	1	USRTblock	1	USRT	107	600000	#ff0000	10pct	1	50pct	50pct	2000	538490	540512	538129	57	540855	343	0	4	105
6.1.1	win	2020-04-15	07:46:00	1	1	1	USRTblock	1	USRT	108	600000	#ff0000	10pct	1	50pct	50pct	7000	540858	547878	540512	57	548182	304	0	4	106
6.1.1	win	2020-04-15	07:46:00	1	1	1	USRTblock	1	USRT	109	600000	#ff0000	10pct	1	50pct	50pct	3000	548186	551194	547878	57	551504	310	0	4	107
6.1.1	win	2020-04-15	07:46:00	1	1	1	USRTblock	1	USRT	110	600000	#ff0000	10pct	1	50pct	50pct	7000	551507	-1	551194	57	555653	0	1	5	108
6.1.1	win	2020-04-15	07:46:00	1	1	1	USRTblock	1	USRT	111	600000	#ff0000	10pct	1	50pct	50pct	5000	555657	560677	-1	57	560953	276	0	5	109
6.1.1	win	2020-04-15	07:46:00	1	1	1	USRTblock	1	USRT	112	600000	#ff0000	10pct	1	50pct	50pct	2000	560957	562976	560677	57	563303	327	0	5	110
6.1.1	win	2020-04-15	07:46:00	1	1	1	USRTblock	1	USRT	113	600000	#ff0000	10pct	1	50pct	50pct	6000	563307	569325	562976	57	569651	326	0	5	111
6.1.1	win	2020-04-15	07:46:00	1	1	1	USRTblock	1	USRT	114	600000	#ff0000	10pct	1	50pct	50pct	3000	569655	572675	569325	57	573068	393	0	5	112
6.1.1	win	2020-04-15	07:46:00	1	1	1	USRTblock	1	USRT	115	600000	#ff0000	10pct	1	50pct	50pct	7000	573071	580092	572675	57	580432	340	0	5	113
6.1.1	win	2020-04-15	07:46:00	1	1	1	USRTblock	1	USRT	116	600000	#ff0000	10pct	1	50pct	50pct	3000	580436	583440	580092	57	583746	306	0	5	114
6.1.1	win	2020-04-15	07:46:00	1	1	1	USRTblock	1	USRT	117	600000	#ff0000	10pct	1	50pct	50pct	8000	583749	591757	583440	57	592052	295	0	5	115
6.1.1	win	2020-04-15	07:46:00	1	1	1	USRTblock	1	USRT	118	600000	#ff0000	10pct	1	50pct	50pct	3000	592056	595073	591757	57	595428	355	0	5	116
6.1.1	win	2020-04-15	07:46:00	1	1	1	USRTblock	1	USRT	119	600000	#ff0000	10pct	1	50pct	50pct	4000	595432	599439	595073	57	599977	538	0	5	117
6.1.1	win	2020-04-15	07:46:00	1	1	1	USRTblock	1	USRT	120	600000	#ff0000	10pct	1	50pct	50pct	4000	599982	-1	599439	0	600133	0	1	6	118
