build	computer.platform	date	time	subject	group	sessionid	blockcode	blocknum	trialcode	trialnum	testduration	targetcolor	targetsize	fixed	targetx	targety	stiminterval	trialStart	shape.targetcircle.timestamp	lastCircleTimestamp	response	rt_elapsed	rt	EarlyResponse	countEarlyResponses	countResponses
6.1.1	win	2020-04-17	13:44:58	1	1	1	USRTblock	1	USRT	3	600000	#ff0000	10pct	1	50pct	50pct	8000	4476	12484	3714	57	12737	253	0	0	1
6.1.1	win	2020-04-17	13:44:58	1	1	1	USRTblock	1	USRT	4	600000	#ff0000	10pct	1	50pct	50pct	8000	12755	20766	12484	57	21005	239	0	0	2
6.1.1	win	2020-04-17	13:44:58	1	1	1	USRTblock	1	USRT	5	600000	#ff0000	10pct	1	50pct	50pct	2000	21008	23015	20766	57	23344	329	0	0	3
6.1.1	win	2020-04-17	13:44:58	1	1	1	USRTblock	1	USRT	6	600000	#ff0000	10pct	1	50pct	50pct	4000	23348	-1	23015	57	23430	0	1	1	4
6.1.1	win	2020-04-17	13:44:58	1	1	1	USRTblock	1	USRT	7	600000	#ff0000	10pct	1	50pct	50pct	8000	23434	31448	-1	57	31739	291	0	1	5
6.1.1	win	2020-04-17	13:44:58	1	1	1	USRTblock	1	USRT	8	600000	#ff0000	10pct	1	50pct	50pct	7000	31743	38764	31448	57	39045	281	0	1	6
6.1.1	win	2020-04-17	13:44:58	1	1	1	USRTblock	1	USRT	9	600000	#ff0000	10pct	1	50pct	50pct	4000	39048	43063	38764	57	43371	308	0	1	7
6.1.1	win	2020-04-17	13:44:58	1	1	1	USRTblock	1	USRT	10	600000	#ff0000	10pct	1	50pct	50pct	8000	43374	51380	43063	57	51686	306	0	1	8
6.1.1	win	2020-04-17	13:44:58	1	1	1	USRTblock	1	USRT	11	600000	#ff0000	10pct	1	50pct	50pct	6000	51690	57695	51380	57	57971	276	0	1	9
6.1.1	win	2020-04-17	13:44:58	1	1	1	USRTblock	1	USRT	12	600000	#ff0000	10pct	1	50pct	50pct	7000	57975	64995	57695	57	65243	248	0	1	10
6.1.1	win	2020-04-17	13:44:58	1	1	1	USRTblock	1	USRT	13	600000	#ff0000	10pct	1	50pct	50pct	4000	65247	69262	64995	57	69607	345	0	1	11
6.1.1	win	2020-04-17	13:44:58	1	1	1	USRTblock	1	USRT	14	600000	#ff0000	10pct	1	50pct	50pct	5000	69611	74628	69262	57	74949	321	0	1	12
6.1.1	win	2020-04-17	13:44:58	1	1	1	USRTblock	1	USRT	15	600000	#ff0000	10pct	1	50pct	50pct	3000	74953	77960	74628	57	78278	318	0	1	13
6.1.1	win	2020-04-17	13:44:58	1	1	1	USRTblock	1	USRT	16	600000	#ff0000	10pct	1	50pct	50pct	6000	78282	84293	77960	57	84561	268	0	1	14
6.1.1	win	2020-04-17	13:44:58	1	1	1	USRTblock	1	USRT	17	600000	#ff0000	10pct	1	50pct	50pct	2000	84564	86576	84293	57	86914	338	0	1	15
6.1.1	win	2020-04-17	13:44:58	1	1	1	USRTblock	1	USRT	18	600000	#ff0000	10pct	1	50pct	50pct	5000	86918	91926	86576	57	92301	375	0	1	16
6.1.1	win	2020-04-17	13:44:58	1	1	1	USRTblock	1	USRT	19	600000	#ff0000	10pct	1	50pct	50pct	4000	92304	96325	91926	57	96633	308	0	1	17
6.1.1	win	2020-04-17	13:44:58	1	1	1	USRTblock	1	USRT	20	600000	#ff0000	10pct	1	50pct	50pct	3000	96636	99640	96325	57	99933	293	0	1	18
6.1.1	win	2020-04-17	13:44:58	1	1	1	USRTblock	1	USRT	21	600000	#ff0000	10pct	1	50pct	50pct	4000	99936	103958	99640	57	104206	248	0	1	19
6.1.1	win	2020-04-17	13:44:58	1	1	1	USRTblock	1	USRT	22	600000	#ff0000	10pct	1	50pct	50pct	8000	104210	112224	103958	57	112474	250	0	1	20
6.1.1	win	2020-04-17	13:44:58	1	1	1	USRTblock	1	USRT	23	600000	#ff0000	10pct	1	50pct	50pct	4000	112478	116489	112224	57	116742	253	0	1	21
6.1.1	win	2020-04-17	13:44:58	1	1	1	USRTblock	1	USRT	24	600000	#ff0000	10pct	1	50pct	50pct	5000	116745	121755	116489	57	122016	261	0	1	22
6.1.1	win	2020-04-17	13:44:58	1	1	1	USRTblock	1	USRT	25	600000	#ff0000	10pct	1	50pct	50pct	3000	122020	125039	121755	57	125326	287	0	1	23
6.1.1	win	2020-04-17	13:44:58	1	1	1	USRTblock	1	USRT	26	600000	#ff0000	10pct	1	50pct	50pct	6000	125330	131338	125039	57	131638	300	0	1	24
6.1.1	win	2020-04-17	13:44:58	1	1	1	USRTblock	1	USRT	27	600000	#ff0000	10pct	1	50pct	50pct	3000	131642	134654	131338	57	134931	277	0	1	25
6.1.1	win	2020-04-17	13:44:58	1	1	1	USRTblock	1	USRT	28	600000	#ff0000	10pct	1	50pct	50pct	6000	134935	140954	134654	57	141210	256	0	1	26
6.1.1	win	2020-04-17	13:44:58	1	1	1	USRTblock	1	USRT	29	600000	#ff0000	10pct	1	50pct	50pct	5000	141214	146220	140954	57	146509	289	0	1	27
6.1.1	win	2020-04-17	13:44:58	1	1	1	USRTblock	1	USRT	30	600000	#ff0000	10pct	1	50pct	50pct	4000	146513	150519	146220	57	150813	294	0	1	28
6.1.1	win	2020-04-17	13:44:58	1	1	1	USRTblock	1	USRT	31	600000	#ff0000	10pct	1	50pct	50pct	7000	150817	157836	150519	57	158097	261	0	1	29
6.1.1	win	2020-04-17	13:44:58	1	1	1	USRTblock	1	USRT	32	600000	#ff0000	10pct	1	50pct	50pct	6000	158101	164119	157836	57	164437	318	0	1	30
6.1.1	win	2020-04-17	13:44:58	1	1	1	USRTblock	1	USRT	33	600000	#ff0000	10pct	1	50pct	50pct	5000	164440	169451	164119	57	169733	282	0	1	31
6.1.1	win	2020-04-17	13:44:58	1	1	1	USRTblock	1	USRT	34	600000	#ff0000	10pct	1	50pct	50pct	4000	169737	173751	169451	57	174121	370	0	1	32
6.1.1	win	2020-04-17	13:44:58	1	1	1	USRTblock	1	USRT	35	600000	#ff0000	10pct	1	50pct	50pct	4000	174125	178133	173751	57	178480	347	0	1	33
6.1.1	win	2020-04-17	13:44:58	1	1	1	USRTblock	1	USRT	36	600000	#ff0000	10pct	1	50pct	50pct	4000	178484	182500	178133	57	182770	270	0	1	34
6.1.1	win	2020-04-17	13:44:58	1	1	1	USRTblock	1	USRT	37	600000	#ff0000	10pct	1	50pct	50pct	2000	182774	184783	182500	57	185374	591	0	1	35
6.1.1	win	2020-04-17	13:44:58	1	1	1	USRTblock	1	USRT	38	600000	#ff0000	10pct	1	50pct	50pct	6000	185377	191383	184783	57	191646	263	0	1	36
6.1.1	win	2020-04-17	13:44:58	1	1	1	USRTblock	1	USRT	39	600000	#ff0000	10pct	1	50pct	50pct	8000	191650	199665	191383	57	199929	264	0	1	37
6.1.1	win	2020-04-17	13:44:58	1	1	1	USRTblock	1	USRT	40	600000	#ff0000	10pct	1	50pct	50pct	8000	199932	207948	199665	57	208266	318	0	1	38
6.1.1	win	2020-04-17	13:44:58	1	1	1	USRTblock	1	USRT	41	600000	#ff0000	10pct	1	50pct	50pct	8000	208270	216281	207948	57	216581	300	0	1	39
6.1.1	win	2020-04-17	13:44:58	1	1	1	USRTblock	1	USRT	42	600000	#ff0000	10pct	1	50pct	50pct	4000	216585	220596	216281	57	220995	399	0	1	40
6.1.1	win	2020-04-17	13:44:58	1	1	1	USRTblock	1	USRT	43	600000	#ff0000	10pct	1	50pct	50pct	5000	220999	226012	220596	57	226302	290	0	1	41
6.1.1	win	2020-04-17	13:44:58	1	1	1	USRTblock	1	USRT	44	600000	#ff0000	10pct	1	50pct	50pct	7000	226306	233311	226012	57	233618	307	0	1	42
6.1.1	win	2020-04-17	13:44:58	1	1	1	USRTblock	1	USRT	45	600000	#ff0000	10pct	1	50pct	50pct	7000	233622	240629	233311	57	240871	242	0	1	43
6.1.1	win	2020-04-17	13:44:58	1	1	1	USRTblock	1	USRT	46	600000	#ff0000	10pct	1	50pct	50pct	3000	240874	243894	240629	57	244269	375	0	1	44
6.1.1	win	2020-04-17	13:44:58	1	1	1	USRTblock	1	USRT	47	600000	#ff0000	10pct	1	50pct	50pct	2000	244274	246293	243894	57	246921	628	0	1	45
6.1.1	win	2020-04-17	13:44:58	1	1	1	USRTblock	1	USRT	48	600000	#ff0000	10pct	1	50pct	50pct	2000	246925	248943	246293	57	249201	258	0	1	46
6.1.1	win	2020-04-17	13:44:58	1	1	1	USRTblock	1	USRT	49	600000	#ff0000	10pct	1	50pct	50pct	5000	249205	254226	248943	57	254515	289	0	1	47
6.1.1	win	2020-04-17	13:44:58	1	1	1	USRTblock	1	USRT	50	600000	#ff0000	10pct	1	50pct	50pct	6000	254519	260526	254226	57	260771	245	0	1	48
6.1.1	win	2020-04-17	13:44:58	1	1	1	USRTblock	1	USRT	51	600000	#ff0000	10pct	1	50pct	50pct	6000	260775	266791	260526	57	267106	315	0	1	49
6.1.1	win	2020-04-17	13:44:58	1	1	1	USRTblock	1	USRT	52	600000	#ff0000	10pct	1	50pct	50pct	7000	267110	274124	266791	57	274398	274	0	1	50
6.1.1	win	2020-04-17	13:44:58	1	1	1	USRTblock	1	USRT	53	600000	#ff0000	10pct	1	50pct	50pct	8000	274401	282407	274124	57	282666	259	0	1	51
6.1.1	win	2020-04-17	13:44:58	1	1	1	USRTblock	1	USRT	54	600000	#ff0000	10pct	1	50pct	50pct	6000	282669	288689	282407	57	288945	256	0	1	52
6.1.1	win	2020-04-17	13:44:58	1	1	1	USRTblock	1	USRT	55	600000	#ff0000	10pct	1	50pct	50pct	8000	288948	296955	288689	57	297206	251	0	1	53
6.1.1	win	2020-04-17	13:44:58	1	1	1	USRTblock	1	USRT	56	600000	#ff0000	10pct	1	50pct	50pct	2000	297210	299221	296955	57	299587	366	0	1	54
6.1.1	win	2020-04-17	13:44:58	1	1	1	USRTblock	1	USRT	57	600000	#ff0000	10pct	1	50pct	50pct	6000	299590	305605	299221	57	305926	321	0	1	55
6.1.1	win	2020-04-17	13:44:58	1	1	1	USRTblock	1	USRT	58	600000	#ff0000	10pct	1	50pct	50pct	8000	305930	313937	305605	57	314336	399	0	1	56
6.1.1	win	2020-04-17	13:44:58	1	1	1	USRTblock	1	USRT	59	600000	#ff0000	10pct	1	50pct	50pct	5000	314339	319353	313937	57	319757	404	0	1	57
6.1.1	win	2020-04-17	13:44:58	1	1	1	USRTblock	1	USRT	60	600000	#ff0000	10pct	1	50pct	50pct	8000	319761	327769	319353	57	328106	337	0	1	58
6.1.1	win	2020-04-17	13:44:58	1	1	1	USRTblock	1	USRT	61	600000	#ff0000	10pct	1	50pct	50pct	6000	328110	334118	327769	57	334476	358	0	1	59
6.1.1	win	2020-04-17	13:44:58	1	1	1	USRTblock	1	USRT	62	600000	#ff0000	10pct	1	50pct	50pct	6000	334480	340501	334118	57	340855	354	0	1	60
6.1.1	win	2020-04-17	13:44:58	1	1	1	USRTblock	1	USRT	63	600000	#ff0000	10pct	1	50pct	50pct	5000	340859	345866	340501	57	346197	331	0	1	61
6.1.1	win	2020-04-17	13:44:58	1	1	1	USRTblock	1	USRT	64	600000	#ff0000	10pct	1	50pct	50pct	2000	346201	348216	345866	57	348530	314	0	1	62
6.1.1	win	2020-04-17	13:44:58	1	1	1	USRTblock	1	USRT	65	600000	#ff0000	10pct	1	50pct	50pct	4000	348534	352549	348216	57	352823	274	0	1	63
6.1.1	win	2020-04-17	13:44:58	1	1	1	USRTblock	1	USRT	66	600000	#ff0000	10pct	1	50pct	50pct	5000	352827	357832	352549	57	358092	260	0	1	64
6.1.1	win	2020-04-17	13:44:58	1	1	1	USRTblock	1	USRT	67	600000	#ff0000	10pct	1	50pct	50pct	7000	358097	365115	357832	57	365458	343	0	1	65
6.1.1	win	2020-04-17	13:44:58	1	1	1	USRTblock	1	USRT	68	600000	#ff0000	10pct	1	50pct	50pct	5000	365463	370481	365115	57	370820	339	0	1	66
6.1.1	win	2020-04-17	13:44:58	1	1	1	USRTblock	1	USRT	69	600000	#ff0000	10pct	1	50pct	50pct	2000	370823	372830	370481	57	373214	384	0	1	67
6.1.1	win	2020-04-17	13:44:58	1	1	1	USRTblock	1	USRT	70	600000	#ff0000	10pct	1	50pct	50pct	5000	373218	378231	372830	57	378598	367	0	1	68
6.1.1	win	2020-04-17	13:44:58	1	1	1	USRTblock	1	USRT	71	600000	#ff0000	10pct	1	50pct	50pct	3000	378602	381613	378231	57	381986	373	0	1	69
6.1.1	win	2020-04-17	13:44:58	1	1	1	USRTblock	1	USRT	72	600000	#ff0000	10pct	1	50pct	50pct	7000	381989	388996	381613	57	389306	310	0	1	70
6.1.1	win	2020-04-17	13:44:58	1	1	1	USRTblock	1	USRT	73	600000	#ff0000	10pct	1	50pct	50pct	2000	389310	391328	388996	57	391763	435	0	1	71
6.1.1	win	2020-04-17	13:44:58	1	1	1	USRTblock	1	USRT	74	600000	#ff0000	10pct	1	50pct	50pct	7000	391767	398778	391328	57	399133	355	0	1	72
6.1.1	win	2020-04-17	13:44:58	1	1	1	USRTblock	1	USRT	75	600000	#ff0000	10pct	1	50pct	50pct	6000	399137	405144	398778	57	405491	347	0	1	73
6.1.1	win	2020-04-17	13:44:58	1	1	1	USRTblock	1	USRT	76	600000	#ff0000	10pct	1	50pct	50pct	8000	405495	413510	405144	57	413832	322	0	1	74
6.1.1	win	2020-04-17	13:44:58	1	1	1	USRTblock	1	USRT	77	600000	#ff0000	10pct	1	50pct	50pct	5000	413836	418842	413510	57	419131	289	0	1	75
6.1.1	win	2020-04-17	13:44:58	1	1	1	USRTblock	1	USRT	78	600000	#ff0000	10pct	1	50pct	50pct	5000	419134	424142	418842	57	424472	330	0	1	76
6.1.1	win	2020-04-17	13:44:58	1	1	1	USRTblock	1	USRT	79	600000	#ff0000	10pct	1	50pct	50pct	7000	424476	431492	424142	57	431790	298	0	1	77
6.1.1	win	2020-04-17	13:44:58	1	1	1	USRTblock	1	USRT	80	600000	#ff0000	10pct	1	50pct	50pct	3000	431793	434807	431492	57	435275	468	0	1	78
6.1.1	win	2020-04-17	13:44:58	1	1	1	USRTblock	1	USRT	81	600000	#ff0000	10pct	1	50pct	50pct	6000	435279	441290	434807	57	441583	293	0	1	79
6.1.1	win	2020-04-17	13:44:58	1	1	1	USRTblock	1	USRT	82	600000	#ff0000	10pct	1	50pct	50pct	2000	441587	443607	441290	57	444139	532	0	1	80
6.1.1	win	2020-04-17	13:44:58	1	1	1	USRTblock	1	USRT	83	600000	#ff0000	10pct	1	50pct	50pct	7000	444142	451156	443607	57	451488	332	0	1	81
6.1.1	win	2020-04-17	13:44:58	1	1	1	USRTblock	1	USRT	84	600000	#ff0000	10pct	1	50pct	50pct	8000	451496	459505	451156	57	459815	310	0	1	82
6.1.1	win	2020-04-17	13:44:58	1	1	1	USRTblock	1	USRT	85	600000	#ff0000	10pct	1	50pct	50pct	7000	459818	466838	459505	57	467181	343	0	1	83
6.1.1	win	2020-04-17	13:44:58	1	1	1	USRTblock	1	USRT	86	600000	#ff0000	10pct	1	50pct	50pct	5000	467185	472205	466838	57	472576	371	0	1	84
6.1.1	win	2020-04-17	13:44:58	1	1	1	USRTblock	1	USRT	87	600000	#ff0000	10pct	1	50pct	50pct	3000	472579	475587	472205	57	476007	420	0	1	85
6.1.1	win	2020-04-17	13:44:58	1	1	1	USRTblock	1	USRT	88	600000	#ff0000	10pct	1	50pct	50pct	6000	476011	482019	475587	57	482374	355	0	1	86
6.1.1	win	2020-04-17	13:44:58	1	1	1	USRTblock	1	USRT	89	600000	#ff0000	10pct	1	50pct	50pct	2000	482378	484386	482019	57	484708	322	0	1	87
6.1.1	win	2020-04-17	13:44:58	1	1	1	USRTblock	1	USRT	90	600000	#ff0000	10pct	1	50pct	50pct	4000	484711	488718	484386	57	489066	348	0	1	88
6.1.1	win	2020-04-17	13:44:58	1	1	1	USRTblock	1	USRT	91	600000	#ff0000	10pct	1	50pct	50pct	7000	489069	496085	488718	57	496333	248	0	1	89
6.1.1	win	2020-04-17	13:44:58	1	1	1	USRTblock	1	USRT	92	600000	#ff0000	10pct	1	50pct	50pct	2000	496337	498351	496085	57	498698	347	0	1	90
6.1.1	win	2020-04-17	13:44:58	1	1	1	USRTblock	1	USRT	93	600000	#ff0000	10pct	1	50pct	50pct	7000	498701	505718	498351	57	506006	288	0	1	91
6.1.1	win	2020-04-17	13:44:58	1	1	1	USRTblock	1	USRT	94	600000	#ff0000	10pct	1	50pct	50pct	5000	506009	511017	505718	57	511355	338	0	1	92
6.1.1	win	2020-04-17	13:44:58	1	1	1	USRTblock	1	USRT	95	600000	#ff0000	10pct	1	50pct	50pct	2000	511358	513366	511017	57	513728	362	0	1	93
6.1.1	win	2020-04-17	13:44:58	1	1	1	USRTblock	1	USRT	96	600000	#ff0000	10pct	1	50pct	50pct	5000	513732	518750	513366	57	519016	266	0	1	94
6.1.1	win	2020-04-17	13:44:58	1	1	1	USRTblock	1	USRT	97	600000	#ff0000	10pct	1	50pct	50pct	6000	519020	525033	518750	57	525404	371	0	1	95
6.1.1	win	2020-04-17	13:44:58	1	1	1	USRTblock	1	USRT	98	600000	#ff0000	10pct	1	50pct	50pct	7000	525408	532415	525033	57	532733	318	0	1	96
6.1.1	win	2020-04-17	13:44:58	1	1	1	USRTblock	1	USRT	99	600000	#ff0000	10pct	1	50pct	50pct	2000	532737	534747	532415	57	535105	358	0	1	97
6.1.1	win	2020-04-17	13:44:58	1	1	1	USRTblock	1	USRT	100	600000	#ff0000	10pct	1	50pct	50pct	2000	535108	537113	534747	57	537476	363	0	1	98
6.1.1	win	2020-04-17	13:44:58	1	1	1	USRTblock	1	USRT	101	600000	#ff0000	10pct	1	50pct	50pct	7000	537479	544497	537113	57	544854	357	0	1	99
6.1.1	win	2020-04-17	13:44:58	1	1	1	USRTblock	1	USRT	102	600000	#ff0000	10pct	1	50pct	50pct	7000	544857	551863	544497	57	552112	249	0	1	100
6.1.1	win	2020-04-17	13:44:58	1	1	1	USRTblock	1	USRT	103	600000	#ff0000	10pct	1	50pct	50pct	2000	552116	554129	551863	57	554554	425	0	1	101
6.1.1	win	2020-04-17	13:44:58	1	1	1	USRTblock	1	USRT	104	600000	#ff0000	10pct	1	50pct	50pct	3000	554558	557578	554129	57	557883	305	0	1	102
6.1.1	win	2020-04-17	13:44:58	1	1	1	USRTblock	1	USRT	105	600000	#ff0000	10pct	1	50pct	50pct	4000	557886	561895	557578	57	562232	337	0	1	103
6.1.1	win	2020-04-17	13:44:58	1	1	1	USRTblock	1	USRT	106	600000	#ff0000	10pct	1	50pct	50pct	5000	562236	567244	561895	57	567504	260	0	1	104
6.1.1	win	2020-04-17	13:44:58	1	1	1	USRTblock	1	USRT	107	600000	#ff0000	10pct	1	50pct	50pct	6000	567507	573527	567244	57	573789	262	0	1	105
6.1.1	win	2020-04-17	13:44:58	1	1	1	USRTblock	1	USRT	108	600000	#ff0000	10pct	1	50pct	50pct	8000	573792	581810	573527	57	582047	237	0	1	106
6.1.1	win	2020-04-17	13:44:58	1	1	1	USRTblock	1	USRT	109	600000	#ff0000	10pct	1	50pct	50pct	8000	582050	590059	581810	57	590391	332	0	1	107
6.1.1	win	2020-04-17	13:44:58	1	1	1	USRTblock	1	USRT	110	600000	#ff0000	10pct	1	50pct	50pct	2000	590395	592408	590059	57	592803	395	0	1	108
6.1.1	win	2020-04-17	13:44:58	1	1	1	USRTblock	1	USRT	111	600000	#ff0000	10pct	1	50pct	50pct	7000	592807	599825	592408	57	600094	269	0	1	109
6.1.1	win	2020-04-17	13:44:58	1	1	1	USRTblock	1	USRT	112	600000	#ff0000	10pct	1	50pct	50pct	6000	600097	-1	599825	0	600186	0	1	2	110
