build	computer.platform	date	time	subject	group	sessionid	blockcode	blocknum	trialcode	trialnum	testduration	targetcolor	targetsize	fixed	targetx	targety	stiminterval	trialStart	shape.targetcircle.timestamp	lastCircleTimestamp	response	rt_elapsed	rt	EarlyResponse	countEarlyResponses	countResponses
6.1.1	win	2020-04-15	22:16:38	1	1	1	USRTblock	1	USRT	3	600000	#ff0000	10pct	1	50pct	50pct	6000	3385	9410	2623	57	9653	243	0	0	1
6.1.1	win	2020-04-15	22:16:38	1	1	1	USRTblock	1	USRT	4	600000	#ff0000	10pct	1	50pct	50pct	6000	9680	15692	9410	57	15925	233	0	0	2
6.1.1	win	2020-04-15	22:16:38	1	1	1	USRTblock	1	USRT	5	600000	#ff0000	10pct	1	50pct	50pct	8000	15930	23941	15692	57	24183	242	0	0	3
6.1.1	win	2020-04-15	22:16:38	1	1	1	USRTblock	1	USRT	6	600000	#ff0000	10pct	1	50pct	50pct	8000	24187	32207	23941	57	32477	270	0	0	4
6.1.1	win	2020-04-15	22:16:38	1	1	1	USRTblock	1	USRT	7	600000	#ff0000	10pct	1	50pct	50pct	6000	32482	38506	32207	57	38747	241	0	0	5
6.1.1	win	2020-04-15	22:16:38	1	1	1	USRTblock	1	USRT	8	600000	#ff0000	10pct	1	50pct	50pct	2000	38751	40772	38506	57	41285	513	0	0	6
6.1.1	win	2020-04-15	22:16:38	1	1	1	USRTblock	1	USRT	9	600000	#ff0000	10pct	1	50pct	50pct	2000	41289	43306	40772	57	43556	250	0	0	7
6.1.1	win	2020-04-15	22:16:38	1	1	1	USRTblock	1	USRT	10	600000	#ff0000	10pct	1	50pct	50pct	3000	43561	46572	43306	57	46824	252	0	0	8
6.1.1	win	2020-04-15	22:16:38	1	1	1	USRTblock	1	USRT	11	600000	#ff0000	10pct	1	50pct	50pct	2000	46830	48838	46572	57	49128	290	0	0	9
6.1.1	win	2020-04-15	22:16:38	1	1	1	USRTblock	1	USRT	12	600000	#ff0000	10pct	1	50pct	50pct	5000	49133	54155	48838	57	54472	317	0	0	10
6.1.1	win	2020-04-15	22:16:38	1	1	1	USRTblock	1	USRT	13	600000	#ff0000	10pct	1	50pct	50pct	7000	54476	61487	54155	57	61801	314	0	0	11
6.1.1	win	2020-04-15	22:16:38	1	1	1	USRTblock	1	USRT	14	600000	#ff0000	10pct	1	50pct	50pct	5000	61806	66820	61487	57	67085	265	0	0	12
6.1.1	win	2020-04-15	22:16:38	1	1	1	USRTblock	1	USRT	15	600000	#ff0000	10pct	1	50pct	50pct	2000	67090	69104	66820	57	69372	268	0	0	13
6.1.1	win	2020-04-15	22:16:38	1	1	1	USRTblock	1	USRT	16	600000	#ff0000	10pct	1	50pct	50pct	4000	69376	73387	69104	57	73641	254	0	0	14
6.1.1	win	2020-04-15	22:16:38	1	1	1	USRTblock	1	USRT	17	600000	#ff0000	10pct	1	50pct	50pct	3000	73645	76659	73387	57	76902	243	0	0	15
6.1.1	win	2020-04-15	22:16:38	1	1	1	USRTblock	1	USRT	18	600000	#ff0000	10pct	1	50pct	50pct	3000	76907	79919	76659	57	80170	251	0	0	16
6.1.1	win	2020-04-15	22:16:38	1	1	1	USRTblock	1	USRT	19	600000	#ff0000	10pct	1	50pct	50pct	5000	80174	85188	79919	57	85479	291	0	0	17
6.1.1	win	2020-04-15	22:16:38	1	1	1	USRTblock	1	USRT	20	600000	#ff0000	10pct	1	50pct	50pct	7000	85484	-1	85188	57	89662	0	1	1	18
6.1.1	win	2020-04-15	22:16:38	1	1	1	USRTblock	1	USRT	21	600000	#ff0000	10pct	1	50pct	50pct	4000	89667	93684	-1	57	94026	342	0	1	19
6.1.1	win	2020-04-15	22:16:38	1	1	1	USRTblock	1	USRT	22	600000	#ff0000	10pct	1	50pct	50pct	4000	94030	98050	93684	57	98293	243	0	1	20
6.1.1	win	2020-04-15	22:16:38	1	1	1	USRTblock	1	USRT	23	600000	#ff0000	10pct	1	50pct	50pct	7000	98297	105317	98050	57	105582	265	0	1	21
6.1.1	win	2020-04-15	22:16:38	1	1	1	USRTblock	1	USRT	24	600000	#ff0000	10pct	1	50pct	50pct	4000	105586	109599	105317	57	109885	286	0	1	22
6.1.1	win	2020-04-15	22:16:38	1	1	1	USRTblock	1	USRT	25	600000	#ff0000	10pct	1	50pct	50pct	5000	109889	114899	109599	57	115139	240	0	1	23
6.1.1	win	2020-04-15	22:16:38	1	1	1	USRTblock	1	USRT	26	600000	#ff0000	10pct	1	50pct	50pct	2000	115143	117165	114899	57	117470	305	0	1	24
6.1.1	win	2020-04-15	22:16:38	1	1	1	USRTblock	1	USRT	27	600000	#ff0000	10pct	1	50pct	50pct	2000	117474	119481	117165	57	119764	283	0	1	25
6.1.1	win	2020-04-15	22:16:38	1	1	1	USRTblock	1	USRT	28	600000	#ff0000	10pct	1	50pct	50pct	6000	119768	125782	119481	57	126035	253	0	1	26
6.1.1	win	2020-04-15	22:16:38	1	1	1	USRTblock	1	USRT	29	600000	#ff0000	10pct	1	50pct	50pct	4000	126038	130047	125782	57	130342	295	0	1	27
6.1.1	win	2020-04-15	22:16:38	1	1	1	USRTblock	1	USRT	30	600000	#ff0000	10pct	1	50pct	50pct	2000	130346	132363	130047	57	132657	294	0	1	28
6.1.1	win	2020-04-15	22:16:38	1	1	1	USRTblock	1	USRT	31	600000	#ff0000	10pct	1	50pct	50pct	2000	132660	134679	132363	57	135069	390	0	1	29
6.1.1	win	2020-04-15	22:16:38	1	1	1	USRTblock	1	USRT	32	600000	#ff0000	10pct	1	50pct	50pct	4000	135074	139096	134679	57	139354	258	0	1	30
6.1.1	win	2020-04-15	22:16:38	1	1	1	USRTblock	1	USRT	33	600000	#ff0000	10pct	1	50pct	50pct	2000	139359	141379	139096	57	141673	294	0	1	31
6.1.1	win	2020-04-15	22:16:38	1	1	1	USRTblock	1	USRT	34	600000	#ff0000	10pct	1	50pct	50pct	3000	141680	144697	141379	57	144995	298	0	1	32
6.1.1	win	2020-04-15	22:16:38	1	1	1	USRTblock	1	USRT	35	600000	#ff0000	10pct	1	50pct	50pct	5000	144999	150012	144697	57	150293	281	0	1	33
6.1.1	win	2020-04-15	22:16:38	1	1	1	USRTblock	1	USRT	36	600000	#ff0000	10pct	1	50pct	50pct	6000	150297	156311	150012	57	156567	256	0	1	34
6.1.1	win	2020-04-15	22:16:38	1	1	1	USRTblock	1	USRT	37	600000	#ff0000	10pct	1	50pct	50pct	6000	156571	162594	156311	57	162906	312	0	1	35
6.1.1	win	2020-04-15	22:16:38	1	1	1	USRTblock	1	USRT	38	600000	#ff0000	10pct	1	50pct	50pct	7000	162910	169927	162594	57	170182	255	0	1	36
6.1.1	win	2020-04-15	22:16:38	1	1	1	USRTblock	1	USRT	39	600000	#ff0000	10pct	1	50pct	50pct	3000	170186	173209	169927	57	173485	276	0	1	37
6.1.1	win	2020-04-15	22:16:38	1	1	1	USRTblock	1	USRT	40	600000	#ff0000	10pct	1	50pct	50pct	5000	173489	178509	173209	57	178779	270	0	1	38
6.1.1	win	2020-04-15	22:16:38	1	1	1	USRTblock	1	USRT	41	600000	#ff0000	10pct	1	50pct	50pct	6000	178784	184793	178509	57	185043	250	0	1	39
6.1.1	win	2020-04-15	22:16:38	1	1	1	USRTblock	1	USRT	42	600000	#ff0000	10pct	1	50pct	50pct	7000	185047	192057	184793	57	192337	280	0	1	40
6.1.1	win	2020-04-15	22:16:38	1	1	1	USRTblock	1	USRT	43	600000	#ff0000	10pct	1	50pct	50pct	2000	192341	194356	192057	57	194684	328	0	1	41
6.1.1	win	2020-04-15	22:16:38	1	1	1	USRTblock	1	USRT	44	600000	#ff0000	10pct	1	50pct	50pct	4000	194689	198707	194356	57	199100	393	0	1	42
6.1.1	win	2020-04-15	22:16:38	1	1	1	USRTblock	1	USRT	45	600000	#ff0000	10pct	1	50pct	50pct	4000	199105	203123	198707	57	203356	233	0	1	43
6.1.1	win	2020-04-15	22:16:38	1	1	1	USRTblock	1	USRT	46	600000	#ff0000	10pct	1	50pct	50pct	6000	203360	209372	203123	57	209612	240	0	1	44
6.1.1	win	2020-04-15	22:16:38	1	1	1	USRTblock	1	USRT	47	600000	#ff0000	10pct	1	50pct	50pct	5000	209615	214621	209372	57	214885	264	0	1	45
6.1.1	win	2020-04-15	22:16:38	1	1	1	USRTblock	1	USRT	48	600000	#ff0000	10pct	1	50pct	50pct	8000	214888	222904	214621	57	223177	273	0	1	46
6.1.1	win	2020-04-15	22:16:38	1	1	1	USRTblock	1	USRT	49	600000	#ff0000	10pct	1	50pct	50pct	7000	223180	230187	222904	57	230440	253	0	1	47
6.1.1	win	2020-04-15	22:16:38	1	1	1	USRTblock	1	USRT	50	600000	#ff0000	10pct	1	50pct	50pct	5000	230444	235453	230187	57	235704	251	0	1	48
6.1.1	win	2020-04-15	22:16:38	1	1	1	USRTblock	1	USRT	51	600000	#ff0000	10pct	1	50pct	50pct	7000	235707	242719	235453	57	242988	269	0	1	49
6.1.1	win	2020-04-15	22:16:38	1	1	1	USRTblock	1	USRT	52	600000	#ff0000	10pct	1	50pct	50pct	4000	242992	247002	242719	57	247294	292	0	1	50
6.1.1	win	2020-04-15	22:16:38	1	1	1	USRTblock	1	USRT	53	600000	#ff0000	10pct	1	50pct	50pct	4000	247298	251318	247002	57	251586	268	0	1	51
6.1.1	win	2020-04-15	22:16:38	1	1	1	USRTblock	1	USRT	54	600000	#ff0000	10pct	1	50pct	50pct	7000	251589	258601	251318	57	258871	270	0	1	52
6.1.1	win	2020-04-15	22:16:38	1	1	1	USRTblock	1	USRT	55	600000	#ff0000	10pct	1	50pct	50pct	3000	258874	261883	258601	57	262205	322	0	1	53
6.1.1	win	2020-04-15	22:16:38	1	1	1	USRTblock	1	USRT	56	600000	#ff0000	10pct	1	50pct	50pct	7000	262209	-1	261883	57	267708	0	1	2	54
6.1.1	win	2020-04-15	22:16:38	1	1	1	USRTblock	1	USRT	57	600000	#ff0000	10pct	1	50pct	50pct	5000	267712	272733	-1	57	273014	281	0	2	55
6.1.1	win	2020-04-15	22:16:38	1	1	1	USRTblock	1	USRT	58	600000	#ff0000	10pct	1	50pct	50pct	5000	273019	278032	272733	57	278356	324	0	2	56
6.1.1	win	2020-04-15	22:16:38	1	1	1	USRTblock	1	USRT	59	600000	#ff0000	10pct	1	50pct	50pct	6000	278359	284365	278032	57	284612	247	0	2	57
6.1.1	win	2020-04-15	22:16:38	1	1	1	USRTblock	1	USRT	60	600000	#ff0000	10pct	1	50pct	50pct	5000	284615	289631	284365	57	289941	310	0	2	58
6.1.1	win	2020-04-15	22:16:38	1	1	1	USRTblock	1	USRT	61	600000	#ff0000	10pct	1	50pct	50pct	3000	289945	292964	289631	57	293287	323	0	2	59
6.1.1	win	2020-04-15	22:16:38	1	1	1	USRTblock	1	USRT	62	600000	#ff0000	10pct	1	50pct	50pct	2000	293290	295297	292964	57	295601	304	0	2	60
6.1.1	win	2020-04-15	22:16:38	1	1	1	USRTblock	1	USRT	63	600000	#ff0000	10pct	1	50pct	50pct	7000	295604	302613	295297	57	303076	463	0	2	61
6.1.1	win	2020-04-15	22:16:38	1	1	1	USRTblock	1	USRT	64	600000	#ff0000	10pct	1	50pct	50pct	4000	303080	307096	302613	57	307399	303	0	2	62
6.1.1	win	2020-04-15	22:16:38	1	1	1	USRTblock	1	USRT	65	600000	#ff0000	10pct	1	50pct	50pct	8000	307403	315411	307096	57	315679	268	0	2	63
6.1.1	win	2020-04-15	22:16:38	1	1	1	USRTblock	1	USRT	66	600000	#ff0000	10pct	1	50pct	50pct	8000	315683	323695	315411	57	324034	339	0	2	64
6.1.1	win	2020-04-15	22:16:38	1	1	1	USRTblock	1	USRT	67	600000	#ff0000	10pct	1	50pct	50pct	7000	324038	331043	323695	57	331479	436	0	2	65
6.1.1	win	2020-04-15	22:16:38	1	1	1	USRTblock	1	USRT	68	600000	#ff0000	10pct	1	50pct	50pct	2000	331483	-1	331043	57	331538	0	1	3	66
6.1.1	win	2020-04-15	22:16:38	1	1	1	USRTblock	1	USRT	69	600000	#ff0000	10pct	1	50pct	50pct	6000	331541	337560	-1	57	337782	222	0	3	67
6.1.1	win	2020-04-15	22:16:38	1	1	1	USRTblock	1	USRT	70	600000	#ff0000	10pct	1	50pct	50pct	4000	337786	341792	337560	57	342074	282	0	3	68
6.1.1	win	2020-04-15	22:16:38	1	1	1	USRTblock	1	USRT	71	600000	#ff0000	10pct	1	50pct	50pct	4000	342078	346092	341792	57	346364	272	0	3	69
6.1.1	win	2020-04-15	22:16:38	1	1	1	USRTblock	1	USRT	72	600000	#ff0000	10pct	1	50pct	50pct	2000	346369	348391	346092	57	348706	315	0	3	70
6.1.1	win	2020-04-15	22:16:38	1	1	1	USRTblock	1	USRT	73	600000	#ff0000	10pct	1	50pct	50pct	5000	348710	353724	348391	57	353983	259	0	3	71
6.1.1	win	2020-04-15	22:16:38	1	1	1	USRTblock	1	USRT	74	600000	#ff0000	10pct	1	50pct	50pct	4000	353987	358007	353724	57	358311	304	0	3	72
6.1.1	win	2020-04-15	22:16:38	1	1	1	USRTblock	1	USRT	75	600000	#ff0000	10pct	1	50pct	50pct	7000	358315	365323	358007	57	365593	270	0	3	73
6.1.1	win	2020-04-15	22:16:38	1	1	1	USRTblock	1	USRT	76	600000	#ff0000	10pct	1	50pct	50pct	7000	365597	372606	365323	57	372876	270	0	3	74
6.1.1	win	2020-04-15	22:16:38	1	1	1	USRTblock	1	USRT	77	600000	#ff0000	10pct	1	50pct	50pct	3000	372880	375888	372606	57	376261	373	0	3	75
6.1.1	win	2020-04-15	22:16:38	1	1	1	USRTblock	1	USRT	78	600000	#ff0000	10pct	1	50pct	50pct	6000	376264	382272	375888	57	382631	359	0	3	76
6.1.1	win	2020-04-15	22:16:38	1	1	1	USRTblock	1	USRT	79	600000	#ff0000	10pct	1	50pct	50pct	8000	382634	390655	382272	57	390910	255	0	3	77
6.1.1	win	2020-04-15	22:16:38	1	1	1	USRTblock	1	USRT	80	600000	#ff0000	10pct	1	50pct	50pct	5000	390915	395937	390655	57	396254	317	0	3	78
6.1.1	win	2020-04-15	22:16:38	1	1	1	USRTblock	1	USRT	81	600000	#ff0000	10pct	1	50pct	50pct	5000	396259	401269	395937	57	401577	308	0	3	79
6.1.1	win	2020-04-15	22:16:38	1	1	1	USRTblock	1	USRT	82	600000	#ff0000	10pct	1	50pct	50pct	3000	401580	404586	401269	57	404948	362	0	3	80
6.1.1	win	2020-04-15	22:16:38	1	1	1	USRTblock	1	USRT	83	600000	#ff0000	10pct	1	50pct	50pct	2000	404951	406969	404586	57	407372	403	0	3	81
6.1.1	win	2020-04-15	22:16:38	1	1	1	USRTblock	1	USRT	84	600000	#ff0000	10pct	1	50pct	50pct	5000	407376	412385	406969	57	412644	259	0	3	82
6.1.1	win	2020-04-15	22:16:38	1	1	1	USRTblock	1	USRT	85	600000	#ff0000	10pct	1	50pct	50pct	4000	412647	416668	412385	57	416936	268	0	3	83
6.1.1	win	2020-04-15	22:16:38	1	1	1	USRTblock	1	USRT	86	600000	#ff0000	10pct	1	50pct	50pct	4000	416940	420951	416668	57	421246	295	0	3	84
6.1.1	win	2020-04-15	22:16:38	1	1	1	USRTblock	1	USRT	87	600000	#ff0000	10pct	1	50pct	50pct	6000	421250	427267	420951	57	427580	313	0	3	85
6.1.1	win	2020-04-15	22:16:38	1	1	1	USRTblock	1	USRT	88	600000	#ff0000	10pct	1	50pct	50pct	2000	427583	429600	427267	57	430043	443	0	3	86
6.1.1	win	2020-04-15	22:16:38	1	1	1	USRTblock	1	USRT	89	600000	#ff0000	10pct	1	50pct	50pct	5000	430047	435066	429600	57	435343	277	0	3	87
6.1.1	win	2020-04-15	22:16:38	1	1	1	USRTblock	1	USRT	90	600000	#ff0000	10pct	1	50pct	50pct	3000	435346	438366	435066	57	438666	300	0	3	88
6.1.1	win	2020-04-15	22:16:38	1	1	1	USRTblock	1	USRT	91	600000	#ff0000	10pct	1	50pct	50pct	6000	438670	444682	438366	57	444929	247	0	3	89
6.1.1	win	2020-04-15	22:16:38	1	1	1	USRTblock	1	USRT	92	600000	#ff0000	10pct	1	50pct	50pct	5000	444932	449948	444682	57	450240	292	0	3	90
6.1.1	win	2020-04-15	22:16:38	1	1	1	USRTblock	1	USRT	93	600000	#ff0000	10pct	1	50pct	50pct	2000	450243	452264	449948	57	452662	398	0	3	91
6.1.1	win	2020-04-15	22:16:38	1	1	1	USRTblock	1	USRT	94	600000	#ff0000	10pct	1	50pct	50pct	2000	452665	454680	452264	57	455028	348	0	3	92
6.1.1	win	2020-04-15	22:16:38	1	1	1	USRTblock	1	USRT	95	600000	#ff0000	10pct	1	50pct	50pct	2000	455031	457047	454680	57	457330	283	0	3	93
6.1.1	win	2020-04-15	22:16:38	1	1	1	USRTblock	1	USRT	96	600000	#ff0000	10pct	1	50pct	50pct	5000	457333	462346	457047	57	462689	343	0	3	94
6.1.1	win	2020-04-15	22:16:38	1	1	1	USRTblock	1	USRT	97	600000	#ff0000	10pct	1	50pct	50pct	8000	462692	470713	462346	57	471064	351	0	3	95
6.1.1	win	2020-04-15	22:16:38	1	1	1	USRTblock	1	USRT	98	600000	#ff0000	10pct	1	50pct	50pct	2000	471067	473079	470713	57	473335	256	0	3	96
6.1.1	win	2020-04-15	22:16:38	1	1	1	USRTblock	1	USRT	99	600000	#ff0000	10pct	1	50pct	50pct	6000	473338	479345	473079	57	479643	298	0	3	97
6.1.1	win	2020-04-15	22:16:38	1	1	1	USRTblock	1	USRT	100	600000	#ff0000	10pct	1	50pct	50pct	4000	479646	483661	479345	57	483946	285	0	3	98
6.1.1	win	2020-04-15	22:16:38	1	1	1	USRTblock	1	USRT	101	600000	#ff0000	10pct	1	50pct	50pct	4000	483950	487961	483661	57	488179	218	0	3	99
6.1.1	win	2020-04-15	22:16:38	1	1	1	USRTblock	1	USRT	102	600000	#ff0000	10pct	1	50pct	50pct	3000	488183	491194	487961	57	491470	276	0	3	100
6.1.1	win	2020-04-15	22:16:38	1	1	1	USRTblock	1	USRT	103	600000	#ff0000	10pct	1	50pct	50pct	7000	491474	498494	491194	57	498729	235	0	3	101
6.1.1	win	2020-04-15	22:16:38	1	1	1	USRTblock	1	USRT	104	600000	#ff0000	10pct	1	50pct	50pct	7000	498732	505742	498494	57	505969	227	0	3	102
6.1.1	win	2020-04-15	22:16:38	1	1	1	USRTblock	1	USRT	105	600000	#ff0000	10pct	1	50pct	50pct	7000	505974	512992	505742	57	513240	248	0	3	103
6.1.1	win	2020-04-15	22:16:38	1	1	1	USRTblock	1	USRT	106	600000	#ff0000	10pct	1	50pct	50pct	6000	513243	519258	512992	57	519580	322	0	3	104
6.1.1	win	2020-04-15	22:16:38	1	1	1	USRTblock	1	USRT	107	600000	#ff0000	10pct	1	50pct	50pct	6000	519584	525591	519258	57	525876	285	0	3	105
6.1.1	win	2020-04-15	22:16:38	1	1	1	USRTblock	1	USRT	108	600000	#ff0000	10pct	1	50pct	50pct	2000	525880	527890	525591	57	528308	418	0	3	106
6.1.1	win	2020-04-15	22:16:38	1	1	1	USRTblock	1	USRT	109	600000	#ff0000	10pct	1	50pct	50pct	8000	528311	536323	527890	57	536669	346	0	3	107
6.1.1	win	2020-04-15	22:16:38	1	1	1	USRTblock	1	USRT	110	600000	#ff0000	10pct	1	50pct	50pct	5000	536673	541689	536323	57	542047	358	0	3	108
6.1.1	win	2020-04-15	22:16:38	1	1	1	USRTblock	1	USRT	111	600000	#ff0000	10pct	1	50pct	50pct	3000	542051	545055	541689	57	545381	326	0	3	109
6.1.1	win	2020-04-15	22:16:38	1	1	1	USRTblock	1	USRT	112	600000	#ff0000	10pct	1	50pct	50pct	4000	545384	549404	545055	57	549673	269	0	3	110
6.1.1	win	2020-04-15	22:16:38	1	1	1	USRTblock	1	USRT	113	600000	#ff0000	10pct	1	50pct	50pct	7000	549676	556687	549404	57	556932	245	0	3	111
6.1.1	win	2020-04-15	22:16:38	1	1	1	USRTblock	1	USRT	114	600000	#ff0000	10pct	1	50pct	50pct	6000	556935	562954	556687	57	563272	318	0	3	112
6.1.1	win	2020-04-15	22:16:38	1	1	1	USRTblock	1	USRT	115	600000	#ff0000	10pct	1	50pct	50pct	4000	563275	567287	562954	57	567695	408	0	3	113
6.1.1	win	2020-04-15	22:16:38	1	1	1	USRTblock	1	USRT	116	600000	#ff0000	10pct	1	50pct	50pct	4000	567699	571719	567287	57	572048	329	0	3	114
6.1.1	win	2020-04-15	22:16:38	1	1	1	USRTblock	1	USRT	117	600000	#ff0000	10pct	1	50pct	50pct	4000	572051	576068	571719	57	576381	313	0	3	115
6.1.1	win	2020-04-15	22:16:38	1	1	1	USRTblock	1	USRT	118	600000	#ff0000	10pct	1	50pct	50pct	5000	576384	581402	576068	57	581771	369	0	3	116
6.1.1	win	2020-04-15	22:16:38	1	1	1	USRTblock	1	USRT	119	600000	#ff0000	10pct	1	50pct	50pct	3000	581775	584784	581402	57	585102	318	0	3	117
6.1.1	win	2020-04-15	22:16:38	1	1	1	USRTblock	1	USRT	120	600000	#ff0000	10pct	1	50pct	50pct	2000	585105	587117	584784	57	587383	266	0	3	118
6.1.1	win	2020-04-15	22:16:38	1	1	1	USRTblock	1	USRT	121	600000	#ff0000	10pct	1	50pct	50pct	2000	587387	589401	587117	57	589669	268	0	3	119
6.1.1	win	2020-04-15	22:16:38	1	1	1	USRTblock	1	USRT	122	600000	#ff0000	10pct	1	50pct	50pct	8000	589672	597683	589401	57	597954	271	0	3	120
6.1.1	win	2020-04-15	22:16:38	1	1	1	USRTblock	1	USRT	123	600000	#ff0000	10pct	1	50pct	50pct	3000	597957	600966	597683	57	601337	371	0	3	121
6.1.1	win	2020-04-15	22:16:38	1	1	1	USRTblock	1	USRT	124	600000	#ff0000	10pct	1	50pct	50pct	4000	601340	-1	600966	0	601482	0	1	4	122
