build	computer.platform	date	time	subject	group	sessionid	blockcode	blocknum	trialcode	trialnum	testduration	targetcolor	targetsize	fixed	targetx	targety	stiminterval	trialStart	shape.targetcircle.timestamp	lastCircleTimestamp	response	rt_elapsed	rt	EarlyResponse	countEarlyResponses	countResponses
6.1.1	win	2020-04-16	19:53:55	1	1	1	USRTblock	1	USRT	3	600000	#ff0000	10pct	1	50pct	50pct	5000	14800	19819	13899	57	20190	371	0	0	1
6.1.1	win	2020-04-16	19:53:55	1	1	1	USRTblock	1	USRT	4	600000	#ff0000	10pct	1	50pct	50pct	7000	20201	27217	19819	57	27485	268	0	0	2
6.1.1	win	2020-04-16	19:53:55	1	1	1	USRTblock	1	USRT	5	600000	#ff0000	10pct	1	50pct	50pct	5000	27488	32500	27217	57	32795	295	0	0	3
6.1.1	win	2020-04-16	19:53:55	1	1	1	USRTblock	1	USRT	6	600000	#ff0000	10pct	1	50pct	50pct	4000	32798	36817	32500	57	37256	439	0	0	4
6.1.1	win	2020-04-16	19:53:55	1	1	1	USRTblock	1	USRT	7	600000	#ff0000	10pct	1	50pct	50pct	3000	37259	40266	36817	57	40644	378	0	0	5
6.1.1	win	2020-04-16	19:53:55	1	1	1	USRTblock	1	USRT	8	600000	#ff0000	10pct	1	50pct	50pct	6000	40649	46666	40266	57	46958	292	0	0	6
6.1.1	win	2020-04-16	19:53:55	1	1	1	USRTblock	1	USRT	9	600000	#ff0000	10pct	1	50pct	50pct	7000	46961	53982	46666	57	54294	312	0	0	7
6.1.1	win	2020-04-16	19:53:55	1	1	1	USRTblock	1	USRT	10	600000	#ff0000	10pct	1	50pct	50pct	6000	54298	60314	53982	57	60705	391	0	0	8
6.1.1	win	2020-04-16	19:53:55	1	1	1	USRTblock	1	USRT	11	600000	#ff0000	10pct	1	50pct	50pct	5000	60709	65730	60314	57	66036	306	0	0	9
6.1.1	win	2020-04-16	19:53:55	1	1	1	USRTblock	1	USRT	12	600000	#ff0000	10pct	1	50pct	50pct	2000	66039	68047	65730	57	68381	334	0	0	10
6.1.1	win	2020-04-16	19:53:55	1	1	1	USRTblock	1	USRT	13	600000	#ff0000	10pct	1	50pct	50pct	5000	68385	73396	68047	57	73676	280	0	0	11
6.1.1	win	2020-04-16	19:53:55	1	1	1	USRTblock	1	USRT	14	600000	#ff0000	10pct	1	50pct	50pct	7000	73679	80695	73396	57	80961	266	0	0	12
6.1.1	win	2020-04-16	19:53:55	1	1	1	USRTblock	1	USRT	15	600000	#ff0000	10pct	1	50pct	50pct	2000	80964	82978	80695	57	83371	393	0	0	13
6.1.1	win	2020-04-16	19:53:55	1	1	1	USRTblock	1	USRT	16	600000	#ff0000	10pct	1	50pct	50pct	5000	83375	88395	82978	57	88712	317	0	0	14
6.1.1	win	2020-04-16	19:53:55	1	1	1	USRTblock	1	USRT	17	600000	#ff0000	10pct	1	50pct	50pct	7000	88715	95728	88395	57	96008	280	0	0	15
6.1.1	win	2020-04-16	19:53:55	1	1	1	USRTblock	1	USRT	18	600000	#ff0000	10pct	1	50pct	50pct	7000	96012	103027	95728	57	103316	289	0	0	16
6.1.1	win	2020-04-16	19:53:55	1	1	1	USRTblock	1	USRT	19	600000	#ff0000	10pct	1	50pct	50pct	8000	103320	111326	103027	57	111672	346	0	0	17
6.1.1	win	2020-04-16	19:53:55	1	1	1	USRTblock	1	USRT	20	600000	#ff0000	10pct	1	50pct	50pct	7000	111675	118692	111326	57	119018	326	0	0	18
6.1.1	win	2020-04-16	19:53:55	1	1	1	USRTblock	1	USRT	21	600000	#ff0000	10pct	1	50pct	50pct	6000	119022	125041	118692	57	125327	286	0	0	19
6.1.1	win	2020-04-16	19:53:55	1	1	1	USRTblock	1	USRT	22	600000	#ff0000	10pct	1	50pct	50pct	4000	125330	129341	125041	57	129622	281	0	0	20
6.1.1	win	2020-04-16	19:53:55	1	1	1	USRTblock	1	USRT	23	600000	#ff0000	10pct	1	50pct	50pct	5000	129625	134640	129341	57	134906	266	0	0	21
6.1.1	win	2020-04-16	19:53:55	1	1	1	USRTblock	1	USRT	24	600000	#ff0000	10pct	1	50pct	50pct	4000	134909	138923	134640	57	139404	481	0	0	22
6.1.1	win	2020-04-16	19:53:55	1	1	1	USRTblock	1	USRT	25	600000	#ff0000	10pct	1	50pct	50pct	6000	139407	145423	138923	57	145700	277	0	0	23
6.1.1	win	2020-04-16	19:53:55	1	1	1	USRTblock	1	USRT	26	600000	#ff0000	10pct	1	50pct	50pct	8000	145704	153722	145423	57	154030	308	0	0	24
6.1.1	win	2020-04-16	19:53:55	1	1	1	USRTblock	1	USRT	27	600000	#ff0000	10pct	1	50pct	50pct	5000	154033	159054	153722	57	159421	367	0	0	25
6.1.1	win	2020-04-16	19:53:55	1	1	1	USRTblock	1	USRT	28	600000	#ff0000	10pct	1	50pct	50pct	3000	159425	162437	159054	57	162931	494	0	0	26
6.1.1	win	2020-04-16	19:53:55	1	1	1	USRTblock	1	USRT	29	600000	#ff0000	10pct	1	50pct	50pct	3000	162935	165954	162437	57	166369	415	0	0	27
6.1.1	win	2020-04-16	19:53:55	1	1	1	USRTblock	1	USRT	30	600000	#ff0000	10pct	1	50pct	50pct	3000	166372	169386	165954	57	169763	377	0	0	28
6.1.1	win	2020-04-16	19:53:55	1	1	1	USRTblock	1	USRT	31	600000	#ff0000	10pct	1	50pct	50pct	7000	169766	176786	169386	57	177054	268	0	0	29
6.1.1	win	2020-04-16	19:53:55	1	1	1	USRTblock	1	USRT	32	600000	#ff0000	10pct	1	50pct	50pct	4000	177058	181068	176786	57	181329	261	0	0	30
6.1.1	win	2020-04-16	19:53:55	1	1	1	USRTblock	1	USRT	33	600000	#ff0000	10pct	1	50pct	50pct	7000	181332	188352	181068	57	188597	245	0	0	31
6.1.1	win	2020-04-16	19:53:55	1	1	1	USRTblock	1	USRT	34	600000	#ff0000	10pct	1	50pct	50pct	2000	188602	190617	188352	57	190998	381	0	0	32
6.1.1	win	2020-04-16	19:53:55	1	1	1	USRTblock	1	USRT	35	600000	#ff0000	10pct	1	50pct	50pct	6000	191002	197018	190617	57	197299	281	0	0	33
6.1.1	win	2020-04-16	19:53:55	1	1	1	USRTblock	1	USRT	36	600000	#ff0000	10pct	1	50pct	50pct	8000	197303	205317	197018	57	205614	297	0	0	34
6.1.1	win	2020-04-16	19:53:55	1	1	1	USRTblock	1	USRT	37	600000	#ff0000	10pct	1	50pct	50pct	7000	205617	212632	205317	57	212914	282	0	0	35
6.1.1	win	2020-04-16	19:53:55	1	1	1	USRTblock	1	USRT	38	600000	#ff0000	10pct	1	50pct	50pct	4000	212918	216932	212632	57	217281	349	0	0	36
6.1.1	win	2020-04-16	19:53:55	1	1	1	USRTblock	1	USRT	39	600000	#ff0000	10pct	1	50pct	50pct	4000	217285	221298	216932	57	221668	370	0	0	37
6.1.1	win	2020-04-16	19:53:55	1	1	1	USRTblock	1	USRT	40	600000	#ff0000	10pct	1	50pct	50pct	7000	221673	228681	221298	57	229059	378	0	0	38
6.1.1	win	2020-04-16	19:53:55	1	1	1	USRTblock	1	USRT	41	600000	#ff0000	10pct	1	50pct	50pct	6000	229063	235080	228681	57	235326	246	0	0	39
6.1.1	win	2020-04-16	19:53:55	1	1	1	USRTblock	1	USRT	42	600000	#ff0000	10pct	1	50pct	50pct	7000	235330	242346	235080	57	242698	352	0	0	40
6.1.1	win	2020-04-16	19:53:55	1	1	1	USRTblock	1	USRT	43	600000	#ff0000	10pct	1	50pct	50pct	4000	242701	246712	242346	57	247056	344	0	0	41
6.1.1	win	2020-04-16	19:53:55	1	1	1	USRTblock	1	USRT	44	600000	#ff0000	10pct	1	50pct	50pct	4000	247060	251079	246712	57	251414	335	0	0	42
6.1.1	win	2020-04-16	19:53:55	1	1	1	USRTblock	1	USRT	45	600000	#ff0000	10pct	1	50pct	50pct	6000	251418	257428	251079	57	257702	274	0	0	43
6.1.1	win	2020-04-16	19:53:55	1	1	1	USRTblock	1	USRT	46	600000	#ff0000	10pct	1	50pct	50pct	2000	257706	259711	257428	57	260023	312	0	0	44
6.1.1	win	2020-04-16	19:53:55	1	1	1	USRTblock	1	USRT	47	600000	#ff0000	10pct	1	50pct	50pct	7000	260028	267044	259711	57	267364	320	0	0	45
6.1.1	win	2020-04-16	19:53:55	1	1	1	USRTblock	1	USRT	48	600000	#ff0000	10pct	1	50pct	50pct	7000	267368	274377	267044	57	274655	278	0	0	46
6.1.1	win	2020-04-16	19:53:55	1	1	1	USRTblock	1	USRT	49	600000	#ff0000	10pct	1	50pct	50pct	2000	274658	276675	274377	57	276964	289	0	0	47
6.1.1	win	2020-04-16	19:53:55	1	1	1	USRTblock	1	USRT	50	600000	#ff0000	10pct	1	50pct	50pct	8000	276968	284975	276675	57	285264	289	0	0	48
6.1.1	win	2020-04-16	19:53:55	1	1	1	USRTblock	1	USRT	51	600000	#ff0000	10pct	1	50pct	50pct	4000	285268	289274	284975	57	289609	335	0	0	49
6.1.1	win	2020-04-16	19:53:55	1	1	1	USRTblock	1	USRT	52	600000	#ff0000	10pct	1	50pct	50pct	4000	289612	293623	289274	57	293964	341	0	0	50
6.1.1	win	2020-04-16	19:53:55	1	1	1	USRTblock	1	USRT	53	600000	#ff0000	10pct	1	50pct	50pct	6000	293968	299990	293623	57	300269	279	0	0	51
6.1.1	win	2020-04-16	19:53:55	1	1	1	USRTblock	1	USRT	54	600000	#ff0000	10pct	1	50pct	50pct	2000	300272	302290	299990	57	302918	628	0	0	52
6.1.1	win	2020-04-16	19:53:55	1	1	1	USRTblock	1	USRT	55	600000	#ff0000	10pct	1	50pct	50pct	3000	302922	-1	302290	57	305863	0	1	1	53
6.1.1	win	2020-04-16	19:53:55	1	1	1	USRTblock	1	USRT	56	600000	#ff0000	10pct	1	50pct	50pct	2000	305867	307872	-1	57	308297	425	0	1	54
6.1.1	win	2020-04-16	19:53:55	1	1	1	USRTblock	1	USRT	57	600000	#ff0000	10pct	1	50pct	50pct	5000	308302	-1	307872	57	308397	0	1	2	55
6.1.1	win	2020-04-16	19:53:55	1	1	1	USRTblock	1	USRT	58	600000	#ff0000	10pct	1	50pct	50pct	5000	308400	313405	-1	57	313709	304	0	2	56
6.1.1	win	2020-04-16	19:53:55	1	1	1	USRTblock	1	USRT	59	600000	#ff0000	10pct	1	50pct	50pct	8000	313712	321722	313405	57	322018	296	0	2	57
6.1.1	win	2020-04-16	19:53:55	1	1	1	USRTblock	1	USRT	60	600000	#ff0000	10pct	1	50pct	50pct	4000	322022	326037	321722	57	326385	348	0	2	58
6.1.1	win	2020-04-16	19:53:55	1	1	1	USRTblock	1	USRT	61	600000	#ff0000	10pct	1	50pct	50pct	2000	326388	328404	326037	57	328907	503	0	2	59
6.1.1	win	2020-04-16	19:53:55	1	1	1	USRTblock	1	USRT	62	600000	#ff0000	10pct	1	50pct	50pct	8000	328911	336920	328404	57	337217	297	0	2	60
6.1.1	win	2020-04-16	19:53:55	1	1	1	USRTblock	1	USRT	63	600000	#ff0000	10pct	1	50pct	50pct	4000	337221	341236	336920	57	341484	248	0	2	61
6.1.1	win	2020-04-16	19:53:55	1	1	1	USRTblock	1	USRT	64	600000	#ff0000	10pct	1	50pct	50pct	3000	341488	344503	341236	57	344821	318	0	2	62
6.1.1	win	2020-04-16	19:53:55	1	1	1	USRTblock	1	USRT	65	600000	#ff0000	10pct	1	50pct	50pct	4000	344824	348835	344503	57	349140	305	0	2	63
6.1.1	win	2020-04-16	19:53:55	1	1	1	USRTblock	1	USRT	66	600000	#ff0000	10pct	1	50pct	50pct	6000	349144	355152	348835	57	355501	349	0	2	64
6.1.1	win	2020-04-16	19:53:55	1	1	1	USRTblock	1	USRT	67	600000	#ff0000	10pct	1	50pct	50pct	6000	355504	361517	355152	57	361806	289	0	2	65
6.1.1	win	2020-04-16	19:53:55	1	1	1	USRTblock	1	USRT	68	600000	#ff0000	10pct	1	50pct	50pct	5000	361810	-1	361517	57	364427	0	1	3	66
6.1.1	win	2020-04-16	19:53:55	1	1	1	USRTblock	1	USRT	69	600000	#ff0000	10pct	1	50pct	50pct	7000	364432	371450	-1	57	371732	282	0	3	67
6.1.1	win	2020-04-16	19:53:55	1	1	1	USRTblock	1	USRT	70	600000	#ff0000	10pct	1	50pct	50pct	5000	371735	376750	371450	57	377033	283	0	3	68
6.1.1	win	2020-04-16	19:53:55	1	1	1	USRTblock	1	USRT	71	600000	#ff0000	10pct	1	50pct	50pct	6000	377038	383048	376750	57	383381	333	0	3	69
6.1.1	win	2020-04-16	19:53:55	1	1	1	USRTblock	1	USRT	72	600000	#ff0000	10pct	1	50pct	50pct	7000	383385	390398	383048	57	390722	324	0	3	70
6.1.1	win	2020-04-16	19:53:55	1	1	1	USRTblock	1	USRT	73	600000	#ff0000	10pct	1	50pct	50pct	5000	390726	395748	390398	57	396131	383	0	3	71
6.1.1	win	2020-04-16	19:53:55	1	1	1	USRTblock	1	USRT	74	600000	#ff0000	10pct	1	50pct	50pct	2000	396135	398147	395748	57	398538	391	0	3	72
6.1.1	win	2020-04-16	19:53:55	1	1	1	USRTblock	1	USRT	75	600000	#ff0000	10pct	1	50pct	50pct	4000	398542	402547	398147	57	402895	348	0	3	73
6.1.1	win	2020-04-16	19:53:55	1	1	1	USRTblock	1	USRT	76	600000	#ff0000	10pct	1	50pct	50pct	8000	402899	410912	402547	57	411207	295	0	3	74
6.1.1	win	2020-04-16	19:53:55	1	1	1	USRTblock	1	USRT	77	600000	#ff0000	10pct	1	50pct	50pct	7000	411211	418229	410912	57	418498	269	0	3	75
6.1.1	win	2020-04-16	19:53:55	1	1	1	USRTblock	1	USRT	78	600000	#ff0000	10pct	1	50pct	50pct	7000	418501	425511	418229	57	425830	319	0	3	76
6.1.1	win	2020-04-16	19:53:55	1	1	1	USRTblock	1	USRT	79	600000	#ff0000	10pct	1	50pct	50pct	2000	425833	427843	425511	57	428263	420	0	3	77
6.1.1	win	2020-04-16	19:53:55	1	1	1	USRTblock	1	USRT	80	600000	#ff0000	10pct	1	50pct	50pct	5000	428267	433277	427843	57	433576	299	0	3	78
6.1.1	win	2020-04-16	19:53:55	1	1	1	USRTblock	1	USRT	81	600000	#ff0000	10pct	1	50pct	50pct	7000	433580	440593	433277	57	440909	316	0	3	79
6.1.1	win	2020-04-16	19:53:55	1	1	1	USRTblock	1	USRT	82	600000	#ff0000	10pct	1	50pct	50pct	6000	440913	446925	440593	57	447262	337	0	3	80
6.1.1	win	2020-04-16	19:53:55	1	1	1	USRTblock	1	USRT	83	600000	#ff0000	10pct	1	50pct	50pct	8000	447265	455275	446925	57	455644	369	0	3	81
6.1.1	win	2020-04-16	19:53:55	1	1	1	USRTblock	1	USRT	84	600000	#ff0000	10pct	1	50pct	50pct	8000	455648	463657	455275	57	464048	391	0	3	82
6.1.1	win	2020-04-16	19:53:55	1	1	1	USRTblock	1	USRT	85	600000	#ff0000	10pct	1	50pct	50pct	7000	464051	471057	463657	57	471452	395	0	3	83
6.1.1	win	2020-04-16	19:53:55	1	1	1	USRTblock	1	USRT	86	600000	#ff0000	10pct	1	50pct	50pct	6000	471455	477472	471057	57	477815	343	0	3	84
6.1.1	win	2020-04-16	19:53:55	1	1	1	USRTblock	1	USRT	87	600000	#ff0000	10pct	1	50pct	50pct	8000	477818	485839	477472	57	486197	358	0	3	85
6.1.1	win	2020-04-16	19:53:55	1	1	1	USRTblock	1	USRT	88	600000	#ff0000	10pct	1	50pct	50pct	7000	486200	493221	485839	57	493490	269	0	3	86
6.1.1	win	2020-04-16	19:53:55	1	1	1	USRTblock	1	USRT	89	600000	#ff0000	10pct	1	50pct	50pct	6000	493494	499503	493221	57	499782	279	0	3	87
6.1.1	win	2020-04-16	19:53:55	1	1	1	USRTblock	1	USRT	90	600000	#ff0000	10pct	1	50pct	50pct	6000	499785	505803	499503	57	506109	306	0	3	88
6.1.1	win	2020-04-16	19:53:55	1	1	1	USRTblock	1	USRT	91	600000	#ff0000	10pct	1	50pct	50pct	8000	506113	514119	505803	57	514487	368	0	3	89
6.1.1	win	2020-04-16	19:53:55	1	1	1	USRTblock	1	USRT	92	600000	#ff0000	10pct	1	50pct	50pct	6000	514491	-1	514119	57	519512	0	1	4	90
6.1.1	win	2020-04-16	19:53:55	1	1	1	USRTblock	1	USRT	93	600000	#ff0000	10pct	1	50pct	50pct	7000	519516	526534	-1	57	526885	351	0	4	91
6.1.1	win	2020-04-16	19:53:55	1	1	1	USRTblock	1	USRT	94	600000	#ff0000	10pct	1	50pct	50pct	7000	526889	533900	526534	57	534219	319	0	4	92
6.1.1	win	2020-04-16	19:53:55	1	1	1	USRTblock	1	USRT	95	600000	#ff0000	10pct	1	50pct	50pct	6000	534223	540233	533900	57	540586	353	0	4	93
6.1.1	win	2020-04-16	19:53:55	1	1	1	USRTblock	1	USRT	96	600000	#ff0000	10pct	1	50pct	50pct	6000	540589	546599	540233	57	546938	339	0	4	94
6.1.1	win	2020-04-16	19:53:55	1	1	1	USRTblock	1	USRT	97	600000	#ff0000	10pct	1	50pct	50pct	3000	546941	549948	546599	57	550296	348	0	4	95
6.1.1	win	2020-04-16	19:53:55	1	1	1	USRTblock	1	USRT	98	600000	#ff0000	10pct	1	50pct	50pct	5000	550300	555315	549948	57	555634	319	0	4	96
6.1.1	win	2020-04-16	19:53:55	1	1	1	USRTblock	1	USRT	99	600000	#ff0000	10pct	1	50pct	50pct	7000	555637	562647	555315	57	563020	373	0	4	97
6.1.1	win	2020-04-16	19:53:55	1	1	1	USRTblock	1	USRT	100	600000	#ff0000	10pct	1	50pct	50pct	6000	563024	569030	562647	57	569346	316	0	4	98
6.1.1	win	2020-04-16	19:53:55	1	1	1	USRTblock	1	USRT	101	600000	#ff0000	10pct	1	50pct	50pct	3000	569350	572363	569030	57	572754	391	0	4	99
6.1.1	win	2020-04-16	19:53:55	1	1	1	USRTblock	1	USRT	102	600000	#ff0000	10pct	1	50pct	50pct	4000	572757	576762	572363	57	577120	358	0	4	100
6.1.1	win	2020-04-16	19:53:55	1	1	1	USRTblock	1	USRT	103	600000	#ff0000	10pct	1	50pct	50pct	8000	577124	585129	576762	57	585392	263	0	4	101
6.1.1	win	2020-04-16	19:53:55	1	1	1	USRTblock	1	USRT	104	600000	#ff0000	10pct	1	50pct	50pct	8000	585396	593411	585129	57	593705	294	0	4	102
6.1.1	win	2020-04-16	19:53:55	1	1	1	USRTblock	1	USRT	105	600000	#ff0000	10pct	1	50pct	50pct	8000	593708	601727	593411	57	602048	321	0	4	103
6.1.1	win	2020-04-16	19:53:55	1	1	1	USRTblock	1	USRT	106	600000	#ff0000	10pct	1	50pct	50pct	8000	602052	610060	601727	57	610482	422	0	4	104
6.1.1	win	2020-04-16	19:53:55	1	1	1	USRTblock	1	USRT	107	600000	#ff0000	10pct	1	50pct	50pct	3000	610486	-1	610060	0	610593	0	1	5	105
