build	computer.platform	date	time	subject	group	sessionid	blockcode	blocknum	trialcode	trialnum	testduration	targetcolor	targetsize	fixed	targetx	targety	stiminterval	trialStart	shape.targetcircle.timestamp	lastCircleTimestamp	response	rt_elapsed	rt	EarlyResponse	countEarlyResponses	countResponses
6.1.1	win	2020-04-17	21:04:40	1	1	1	USRTblock	1	USRT	3	600000	#ff0000	10pct	1	50pct	50pct	5000	3644	8653	2918	57	8899	246	0	0	1
6.1.1	win	2020-04-17	21:04:40	1	1	1	USRTblock	1	USRT	4	600000	#ff0000	10pct	1	50pct	50pct	4000	8914	12920	8653	57	13114	194	0	0	2
6.1.1	win	2020-04-17	21:04:40	1	1	1	USRTblock	1	USRT	5	600000	#ff0000	10pct	1	50pct	50pct	3000	13118	16137	12920	57	16364	227	0	0	3
6.1.1	win	2020-04-17	21:04:40	1	1	1	USRTblock	1	USRT	6	600000	#ff0000	10pct	1	50pct	50pct	7000	16368	23386	16137	57	23620	234	0	0	4
6.1.1	win	2020-04-17	21:04:40	1	1	1	USRTblock	1	USRT	7	600000	#ff0000	10pct	1	50pct	50pct	6000	23625	29635	23386	57	29872	237	0	0	5
6.1.1	win	2020-04-17	21:04:40	1	1	1	USRTblock	1	USRT	8	600000	#ff0000	10pct	1	50pct	50pct	3000	29875	32885	29635	57	33185	300	0	0	6
6.1.1	win	2020-04-17	21:04:40	1	1	1	USRTblock	1	USRT	9	600000	#ff0000	10pct	1	50pct	50pct	8000	33188	41201	32885	57	41454	253	0	0	7
6.1.1	win	2020-04-17	21:04:40	1	1	1	USRTblock	1	USRT	10	600000	#ff0000	10pct	1	50pct	50pct	7000	41458	48467	41201	57	48792	325	0	0	8
6.1.1	win	2020-04-17	21:04:40	1	1	1	USRTblock	1	USRT	11	600000	#ff0000	10pct	1	50pct	50pct	5000	48796	53816	48467	57	54166	350	0	0	9
6.1.1	win	2020-04-17	21:04:40	1	1	1	USRTblock	1	USRT	12	600000	#ff0000	10pct	1	50pct	50pct	2000	54170	56182	53816	57	56502	320	0	0	10
6.1.1	win	2020-04-17	21:04:40	1	1	1	USRTblock	1	USRT	13	600000	#ff0000	10pct	1	50pct	50pct	2000	56505	58516	56182	57	58839	323	0	0	11
6.1.1	win	2020-04-17	21:04:40	1	1	1	USRTblock	1	USRT	14	600000	#ff0000	10pct	1	50pct	50pct	3000	58843	61848	58516	57	62348	500	0	0	12
6.1.1	win	2020-04-17	21:04:40	1	1	1	USRTblock	1	USRT	15	600000	#ff0000	10pct	1	50pct	50pct	7000	62351	69365	61848	57	69604	239	0	0	13
6.1.1	win	2020-04-17	21:04:40	1	1	1	USRTblock	1	USRT	16	600000	#ff0000	10pct	1	50pct	50pct	5000	69608	74614	69365	57	74917	303	0	0	14
6.1.1	win	2020-04-17	21:04:40	1	1	1	USRTblock	1	USRT	17	600000	#ff0000	10pct	1	50pct	50pct	5000	74922	79930	74614	57	80161	231	0	0	15
6.1.1	win	2020-04-17	21:04:40	1	1	1	USRTblock	1	USRT	18	600000	#ff0000	10pct	1	50pct	50pct	8000	80165	88180	79930	57	88430	250	0	0	16
6.1.1	win	2020-04-17	21:04:40	1	1	1	USRTblock	1	USRT	19	600000	#ff0000	10pct	1	50pct	50pct	5000	88434	93445	88180	57	93750	305	0	0	17
6.1.1	win	2020-04-17	21:04:40	1	1	1	USRTblock	1	USRT	20	600000	#ff0000	10pct	1	50pct	50pct	5000	93753	98762	93445	57	98992	230	0	0	18
6.1.1	win	2020-04-17	21:04:40	1	1	1	USRTblock	1	USRT	21	600000	#ff0000	10pct	1	50pct	50pct	2000	98996	101011	98762	57	101344	333	0	0	19
6.1.1	win	2020-04-17	21:04:40	1	1	1	USRTblock	1	USRT	22	600000	#ff0000	10pct	1	50pct	50pct	4000	101348	105361	101011	57	105611	250	0	0	20
6.1.1	win	2020-04-17	21:04:40	1	1	1	USRTblock	1	USRT	23	600000	#ff0000	10pct	1	50pct	50pct	2000	105615	107627	105361	57	107929	302	0	0	21
6.1.1	win	2020-04-17	21:04:40	1	1	1	USRTblock	1	USRT	24	600000	#ff0000	10pct	1	50pct	50pct	4000	107934	111943	107627	57	112189	246	0	0	22
6.1.1	win	2020-04-17	21:04:40	1	1	1	USRTblock	1	USRT	25	600000	#ff0000	10pct	1	50pct	50pct	2000	112193	114210	111943	57	114504	294	0	0	23
6.1.1	win	2020-04-17	21:04:40	1	1	1	USRTblock	1	USRT	26	600000	#ff0000	10pct	1	50pct	50pct	5000	114509	119526	114210	57	119781	255	0	0	24
6.1.1	win	2020-04-17	21:04:40	1	1	1	USRTblock	1	USRT	27	600000	#ff0000	10pct	1	50pct	50pct	8000	119784	127792	119526	57	128008	216	0	0	25
6.1.1	win	2020-04-17	21:04:40	1	1	1	USRTblock	1	USRT	28	600000	#ff0000	10pct	1	50pct	50pct	7000	128012	135025	127792	57	135274	249	0	0	26
6.1.1	win	2020-04-17	21:04:40	1	1	1	USRTblock	1	USRT	29	600000	#ff0000	10pct	1	50pct	50pct	2000	135278	137291	135025	57	137637	346	0	0	27
6.1.1	win	2020-04-17	21:04:40	1	1	1	USRTblock	1	USRT	30	600000	#ff0000	10pct	1	50pct	50pct	7000	137640	144657	137291	57	144901	244	0	0	28
6.1.1	win	2020-04-17	21:04:40	1	1	1	USRTblock	1	USRT	31	600000	#ff0000	10pct	1	50pct	50pct	3000	144907	147923	144657	57	148182	259	0	0	29
6.1.1	win	2020-04-17	21:04:40	1	1	1	USRTblock	1	USRT	32	600000	#ff0000	10pct	1	50pct	50pct	6000	148185	154206	147923	57	154523	317	0	0	30
6.1.1	win	2020-04-17	21:04:40	1	1	1	USRTblock	1	USRT	33	600000	#ff0000	10pct	1	50pct	50pct	2000	154527	156539	154206	57	156960	421	0	0	31
6.1.1	win	2020-04-17	21:04:40	1	1	1	USRTblock	1	USRT	34	600000	#ff0000	10pct	1	50pct	50pct	5000	156963	161973	156539	57	162253	280	0	0	32
6.1.1	win	2020-04-17	21:04:40	1	1	1	USRTblock	1	USRT	35	600000	#ff0000	10pct	1	50pct	50pct	8000	162257	170271	161973	57	170529	258	0	0	33
6.1.1	win	2020-04-17	21:04:40	1	1	1	USRTblock	1	USRT	36	600000	#ff0000	10pct	1	50pct	50pct	8000	170532	178537	170271	57	178785	248	0	0	34
6.1.1	win	2020-04-17	21:04:40	1	1	1	USRTblock	1	USRT	37	600000	#ff0000	10pct	1	50pct	50pct	3000	178790	181803	178537	57	182087	284	0	0	35
6.1.1	win	2020-04-17	21:04:40	1	1	1	USRTblock	1	USRT	38	600000	#ff0000	10pct	1	50pct	50pct	8000	182091	190103	181803	57	190410	307	0	0	36
6.1.1	win	2020-04-17	21:04:40	1	1	1	USRTblock	1	USRT	39	600000	#ff0000	10pct	1	50pct	50pct	2000	190441	192452	190103	57	192821	369	0	0	37
6.1.1	win	2020-04-17	21:04:40	1	1	1	USRTblock	1	USRT	40	600000	#ff0000	10pct	1	50pct	50pct	8000	192825	200834	192452	57	201132	298	0	0	38
6.1.1	win	2020-04-17	21:04:40	1	1	1	USRTblock	1	USRT	41	600000	#ff0000	10pct	1	50pct	50pct	3000	201135	204150	200834	57	204468	318	0	0	39
6.1.1	win	2020-04-17	21:04:40	1	1	1	USRTblock	1	USRT	42	600000	#ff0000	10pct	1	50pct	50pct	7000	204472	211484	204150	57	211789	305	0	0	40
6.1.1	win	2020-04-17	21:04:40	1	1	1	USRTblock	1	USRT	43	600000	#ff0000	10pct	1	50pct	50pct	5000	211793	216800	211484	57	217128	328	0	0	41
6.1.1	win	2020-04-17	21:04:40	1	1	1	USRTblock	1	USRT	44	600000	#ff0000	10pct	1	50pct	50pct	5000	217132	222149	216800	57	222416	267	0	0	42
6.1.1	win	2020-04-17	21:04:40	1	1	1	USRTblock	1	USRT	45	600000	#ff0000	10pct	1	50pct	50pct	7000	222420	229432	222149	57	229664	232	0	0	43
6.1.1	win	2020-04-17	21:04:40	1	1	1	USRTblock	1	USRT	46	600000	#ff0000	10pct	1	50pct	50pct	8000	229668	237680	229432	57	237915	235	0	0	44
6.1.1	win	2020-04-17	21:04:40	1	1	1	USRTblock	1	USRT	47	600000	#ff0000	10pct	1	50pct	50pct	3000	237918	240930	237680	57	241314	384	0	0	45
6.1.1	win	2020-04-17	21:04:40	1	1	1	USRTblock	1	USRT	48	600000	#ff0000	10pct	1	50pct	50pct	6000	241317	247330	240930	57	247561	231	0	0	46
6.1.1	win	2020-04-17	21:04:40	1	1	1	USRTblock	1	USRT	49	600000	#ff0000	10pct	1	50pct	50pct	2000	247564	249579	247330	57	249856	277	0	0	47
6.1.1	win	2020-04-17	21:04:40	1	1	1	USRTblock	1	USRT	50	600000	#ff0000	10pct	1	50pct	50pct	2000	249860	251879	249579	57	252148	269	0	0	48
6.1.1	win	2020-04-17	21:04:40	1	1	1	USRTblock	1	USRT	51	600000	#ff0000	10pct	1	50pct	50pct	4000	252151	256162	251879	57	256408	246	0	0	49
6.1.1	win	2020-04-17	21:04:40	1	1	1	USRTblock	1	USRT	52	600000	#ff0000	10pct	1	50pct	50pct	2000	256411	258429	256162	57	258703	274	0	0	50
6.1.1	win	2020-04-17	21:04:40	1	1	1	USRTblock	1	USRT	53	600000	#ff0000	10pct	1	50pct	50pct	7000	258707	265728	258429	57	265971	243	0	0	51
6.1.1	win	2020-04-17	21:04:40	1	1	1	USRTblock	1	USRT	54	600000	#ff0000	10pct	1	50pct	50pct	7000	265975	272994	265728	57	273250	256	0	0	52
6.1.1	win	2020-04-17	21:04:40	1	1	1	USRTblock	1	USRT	55	600000	#ff0000	10pct	1	50pct	50pct	6000	273254	279260	272994	57	279539	279	0	0	53
6.1.1	win	2020-04-17	21:04:40	1	1	1	USRTblock	1	USRT	56	600000	#ff0000	10pct	1	50pct	50pct	2000	279543	281560	279260	57	281882	322	0	0	54
6.1.1	win	2020-04-17	21:04:40	1	1	1	USRTblock	1	USRT	57	600000	#ff0000	10pct	1	50pct	50pct	7000	281886	288893	281560	57	289167	274	0	0	55
6.1.1	win	2020-04-17	21:04:40	1	1	1	USRTblock	1	USRT	58	600000	#ff0000	10pct	1	50pct	50pct	6000	289171	295192	288893	57	295433	241	0	0	56
6.1.1	win	2020-04-17	21:04:40	1	1	1	USRTblock	1	USRT	59	600000	#ff0000	10pct	1	50pct	50pct	3000	295437	298458	295192	57	298709	251	0	0	57
6.1.1	win	2020-04-17	21:04:40	1	1	1	USRTblock	1	USRT	60	600000	#ff0000	10pct	1	50pct	50pct	8000	298713	306724	298458	57	306999	275	0	0	58
6.1.1	win	2020-04-17	21:04:40	1	1	1	USRTblock	1	USRT	61	600000	#ff0000	10pct	1	50pct	50pct	6000	307002	313024	306724	57	313308	284	0	0	59
6.1.1	win	2020-04-17	21:04:40	1	1	1	USRTblock	1	USRT	62	600000	#ff0000	10pct	1	50pct	50pct	4000	313312	317323	313024	57	317583	260	0	0	60
6.1.1	win	2020-04-17	21:04:40	1	1	1	USRTblock	1	USRT	63	600000	#ff0000	10pct	1	50pct	50pct	6000	317587	323606	317323	57	323888	282	0	0	61
6.1.1	win	2020-04-17	21:04:40	1	1	1	USRTblock	1	USRT	64	600000	#ff0000	10pct	1	50pct	50pct	7000	323892	330905	323606	57	331174	269	0	0	62
6.1.1	win	2020-04-17	21:04:40	1	1	1	USRTblock	1	USRT	65	600000	#ff0000	10pct	1	50pct	50pct	7000	331178	338188	330905	57	338508	320	0	0	63
6.1.1	win	2020-04-17	21:04:40	1	1	1	USRTblock	1	USRT	66	600000	#ff0000	10pct	1	50pct	50pct	2000	338511	340520	338188	57	340865	345	0	0	64
6.1.1	win	2020-04-17	21:04:40	1	1	1	USRTblock	1	USRT	67	600000	#ff0000	10pct	1	50pct	50pct	7000	340869	347887	340520	57	348157	270	0	0	65
6.1.1	win	2020-04-17	21:04:40	1	1	1	USRTblock	1	USRT	68	600000	#ff0000	10pct	1	50pct	50pct	7000	348161	355169	347887	57	355434	265	0	0	66
6.1.1	win	2020-04-17	21:04:40	1	1	1	USRTblock	1	USRT	69	600000	#ff0000	10pct	1	50pct	50pct	8000	355437	363452	355169	57	363718	266	0	0	67
6.1.1	win	2020-04-17	21:04:40	1	1	1	USRTblock	1	USRT	70	600000	#ff0000	10pct	1	50pct	50pct	6000	363722	369735	363452	57	370012	277	0	0	68
6.1.1	win	2020-04-17	21:04:40	1	1	1	USRTblock	1	USRT	71	600000	#ff0000	10pct	1	50pct	50pct	6000	370016	376034	369735	57	376285	251	0	0	69
6.1.1	win	2020-04-17	21:04:40	1	1	1	USRTblock	1	USRT	72	600000	#ff0000	10pct	1	50pct	50pct	8000	376288	384300	376034	57	384551	251	0	0	70
6.1.1	win	2020-04-17	21:04:40	1	1	1	USRTblock	1	USRT	73	600000	#ff0000	10pct	1	50pct	50pct	7000	384555	391566	384300	57	391827	261	0	0	71
6.1.1	win	2020-04-17	21:04:40	1	1	1	USRTblock	1	USRT	74	600000	#ff0000	10pct	1	50pct	50pct	6000	391831	397848	391566	57	398110	262	0	0	72
6.1.1	win	2020-04-17	21:04:40	1	1	1	USRTblock	1	USRT	75	600000	#ff0000	10pct	1	50pct	50pct	7000	398114	405131	397848	57	405400	269	0	0	73
6.1.1	win	2020-04-17	21:04:40	1	1	1	USRTblock	1	USRT	76	600000	#ff0000	10pct	1	50pct	50pct	8000	405405	413414	405131	57	413644	230	0	0	74
6.1.1	win	2020-04-17	21:04:40	1	1	1	USRTblock	1	USRT	77	600000	#ff0000	10pct	1	50pct	50pct	8000	413647	421663	413414	57	421913	250	0	0	75
6.1.1	win	2020-04-17	21:04:40	1	1	1	USRTblock	1	USRT	78	600000	#ff0000	10pct	1	50pct	50pct	4000	421916	425929	421663	57	426255	326	0	0	76
6.1.1	win	2020-04-17	21:04:40	1	1	1	USRTblock	1	USRT	79	600000	#ff0000	10pct	1	50pct	50pct	6000	426259	432279	425929	57	432588	309	0	0	77
6.1.1	win	2020-04-17	21:04:40	1	1	1	USRTblock	1	USRT	80	600000	#ff0000	10pct	1	50pct	50pct	6000	432592	438611	432279	57	438882	271	0	0	78
6.1.1	win	2020-04-17	21:04:40	1	1	1	USRTblock	1	USRT	81	600000	#ff0000	10pct	1	50pct	50pct	3000	438885	441893	438611	57	442195	302	0	0	79
6.1.1	win	2020-04-17	21:04:40	1	1	1	USRTblock	1	USRT	82	600000	#ff0000	10pct	1	50pct	50pct	7000	442199	449210	441893	57	449488	278	0	0	80
6.1.1	win	2020-04-17	21:04:40	1	1	1	USRTblock	1	USRT	83	600000	#ff0000	10pct	1	50pct	50pct	4000	449492	453510	449210	57	453806	296	0	0	81
6.1.1	win	2020-04-17	21:04:40	1	1	1	USRTblock	1	USRT	84	600000	#ff0000	10pct	1	50pct	50pct	5000	453810	458826	453510	57	459115	289	0	0	82
6.1.1	win	2020-04-17	21:04:40	1	1	1	USRTblock	1	USRT	85	600000	#ff0000	10pct	1	50pct	50pct	8000	459119	467125	458826	57	467378	253	0	0	83
6.1.1	win	2020-04-17	21:04:40	1	1	1	USRTblock	1	USRT	86	600000	#ff0000	10pct	1	50pct	50pct	2000	467382	469391	467125	57	469812	421	0	0	84
6.1.1	win	2020-04-17	21:04:40	1	1	1	USRTblock	1	USRT	87	600000	#ff0000	10pct	1	50pct	50pct	5000	469816	474824	469391	57	475145	321	0	0	85
6.1.1	win	2020-04-17	21:04:40	1	1	1	USRTblock	1	USRT	88	600000	#ff0000	10pct	1	50pct	50pct	6000	475149	481156	474824	57	481446	290	0	0	86
6.1.1	win	2020-04-17	21:04:40	1	1	1	USRTblock	1	USRT	89	600000	#ff0000	10pct	1	50pct	50pct	3000	481449	484457	481156	57	484783	326	0	0	87
6.1.1	win	2020-04-17	21:04:40	1	1	1	USRTblock	1	USRT	90	600000	#ff0000	10pct	1	50pct	50pct	4000	484786	488806	484457	57	489077	271	0	0	88
6.1.1	win	2020-04-17	21:04:40	1	1	1	USRTblock	1	USRT	91	600000	#ff0000	10pct	1	50pct	50pct	3000	489082	492089	488806	57	492359	270	0	0	89
6.1.1	win	2020-04-17	21:04:40	1	1	1	USRTblock	1	USRT	92	600000	#ff0000	10pct	1	50pct	50pct	7000	492362	499371	492089	57	499637	266	0	0	90
6.1.1	win	2020-04-17	21:04:40	1	1	1	USRTblock	1	USRT	93	600000	#ff0000	10pct	1	50pct	50pct	2000	499641	501654	499371	57	501990	336	0	0	91
6.1.1	win	2020-04-17	21:04:40	1	1	1	USRTblock	1	USRT	94	600000	#ff0000	10pct	1	50pct	50pct	7000	501993	509005	501654	57	509283	278	0	0	92
6.1.1	win	2020-04-17	21:04:40	1	1	1	USRTblock	1	USRT	95	600000	#ff0000	10pct	1	50pct	50pct	3000	509287	512304	509005	57	512597	293	0	0	93
6.1.1	win	2020-04-17	21:04:40	1	1	1	USRTblock	1	USRT	96	600000	#ff0000	10pct	1	50pct	50pct	8000	512601	520620	512304	57	520898	278	0	0	94
6.1.1	win	2020-04-17	21:04:40	1	1	1	USRTblock	1	USRT	97	600000	#ff0000	10pct	1	50pct	50pct	7000	520902	527919	520620	57	528210	291	0	0	95
6.1.1	win	2020-04-17	21:04:40	1	1	1	USRTblock	1	USRT	98	600000	#ff0000	10pct	1	50pct	50pct	8000	528214	536235	527919	57	536560	325	0	0	96
6.1.1	win	2020-04-17	21:04:40	1	1	1	USRTblock	1	USRT	99	600000	#ff0000	10pct	1	50pct	50pct	4000	536564	540584	536235	57	540910	326	0	0	97
6.1.1	win	2020-04-17	21:04:40	1	1	1	USRTblock	1	USRT	100	600000	#ff0000	10pct	1	50pct	50pct	8000	540914	548933	540584	57	549214	281	0	0	98
6.1.1	win	2020-04-17	21:04:40	1	1	1	USRTblock	1	USRT	101	600000	#ff0000	10pct	1	50pct	50pct	4000	549217	553233	548933	57	553566	333	0	0	99
6.1.1	win	2020-04-17	21:04:40	1	1	1	USRTblock	1	USRT	102	600000	#ff0000	10pct	1	50pct	50pct	7000	553569	560583	553233	57	560894	311	0	0	100
6.1.1	win	2020-04-17	21:04:40	1	1	1	USRTblock	1	USRT	103	600000	#ff0000	10pct	1	50pct	50pct	4000	560898	564915	560583	57	565216	301	0	0	101
6.1.1	win	2020-04-17	21:04:40	1	1	1	USRTblock	1	USRT	104	600000	#ff0000	10pct	1	50pct	50pct	8000	565220	573231	564915	57	573487	256	0	0	102
6.1.1	win	2020-04-17	21:04:40	1	1	1	USRTblock	1	USRT	105	600000	#ff0000	10pct	1	50pct	50pct	3000	573490	576497	573231	57	576867	370	0	0	103
6.1.1	win	2020-04-17	21:04:40	1	1	1	USRTblock	1	USRT	106	600000	#ff0000	10pct	1	50pct	50pct	8000	576871	584880	576497	57	585140	260	0	0	104
6.1.1	win	2020-04-17	21:04:40	1	1	1	USRTblock	1	USRT	107	600000	#ff0000	10pct	1	50pct	50pct	5000	585144	590163	584880	57	590460	297	0	0	105
6.1.1	win	2020-04-17	21:04:40	1	1	1	USRTblock	1	USRT	108	600000	#ff0000	10pct	1	50pct	50pct	3000	590463	593479	590163	57	593776	297	0	0	106
6.1.1	win	2020-04-17	21:04:40	1	1	1	USRTblock	1	USRT	109	600000	#ff0000	10pct	1	50pct	50pct	2000	593780	595795	593479	57	596121	326	0	0	107
6.1.1	win	2020-04-17	21:04:40	1	1	1	USRTblock	1	USRT	110	600000	#ff0000	10pct	1	50pct	50pct	6000	596124	-1	595795	0	596218	0	1	1	108
