build	computer.platform	date	time	subject	group	sessionid	blockcode	blocknum	trialcode	trialnum	testduration	targetcolor	targetsize	fixed	targetx	targety	stiminterval	trialStart	shape.targetcircle.timestamp	lastCircleTimestamp	response	rt_elapsed	rt	EarlyResponse	countEarlyResponses	countResponses
6.1.1	win	2020-04-16	19:37:43	1	1	1	USRTblock	1	USRT	3	600000	#ff0000	10pct	1	50pct	50pct	5000	3413	8433	2697	57	8677	244	0	0	1
6.1.1	win	2020-04-16	19:37:43	1	1	1	USRTblock	1	USRT	4	600000	#ff0000	10pct	1	50pct	50pct	6000	8691	-1	8433	57	11553	0	1	1	2
6.1.1	win	2020-04-16	19:37:43	1	1	1	USRTblock	1	USRT	5	600000	#ff0000	10pct	1	50pct	50pct	8000	11556	19566	-1	57	19835	269	0	1	3
6.1.1	win	2020-04-16	19:37:43	1	1	1	USRTblock	1	USRT	6	600000	#ff0000	10pct	1	50pct	50pct	4000	19839	23848	19566	57	24127	279	0	1	4
6.1.1	win	2020-04-16	19:37:43	1	1	1	USRTblock	1	USRT	7	600000	#ff0000	10pct	1	50pct	50pct	3000	24131	27148	23848	57	27487	339	0	1	5
6.1.1	win	2020-04-16	19:37:43	1	1	1	USRTblock	1	USRT	8	600000	#ff0000	10pct	1	50pct	50pct	5000	27490	32498	27148	57	32767	269	0	1	6
6.1.1	win	2020-04-16	19:37:43	1	1	1	USRTblock	1	USRT	9	600000	#ff0000	10pct	1	50pct	50pct	5000	32772	37780	32498	57	38058	278	0	1	7
6.1.1	win	2020-04-16	19:37:43	1	1	1	USRTblock	1	USRT	10	600000	#ff0000	10pct	1	50pct	50pct	5000	38061	43080	37780	57	43434	354	0	1	8
6.1.1	win	2020-04-16	19:37:43	1	1	1	USRTblock	1	USRT	11	600000	#ff0000	10pct	1	50pct	50pct	2000	43437	45446	43080	57	45818	372	0	1	9
6.1.1	win	2020-04-16	19:37:43	1	1	1	USRTblock	1	USRT	12	600000	#ff0000	10pct	1	50pct	50pct	3000	45821	48829	45446	57	49207	378	0	1	10
6.1.1	win	2020-04-16	19:37:43	1	1	1	USRTblock	1	USRT	13	600000	#ff0000	10pct	1	50pct	50pct	8000	49210	57228	48829	57	57506	278	0	1	11
6.1.1	win	2020-04-16	19:37:43	1	1	1	USRTblock	1	USRT	14	600000	#ff0000	10pct	1	50pct	50pct	3000	57509	60528	57228	57	60898	370	0	1	12
6.1.1	win	2020-04-16	19:37:43	1	1	1	USRTblock	1	USRT	15	600000	#ff0000	10pct	1	50pct	50pct	5000	60901	65911	60528	57	66184	273	0	1	13
6.1.1	win	2020-04-16	19:37:43	1	1	1	USRTblock	1	USRT	16	600000	#ff0000	10pct	1	50pct	50pct	5000	66187	71193	65911	57	71504	311	0	1	14
6.1.1	win	2020-04-16	19:37:43	1	1	1	USRTblock	1	USRT	17	600000	#ff0000	10pct	1	50pct	50pct	3000	71508	74526	71193	57	74833	307	0	1	15
6.1.1	win	2020-04-16	19:37:43	1	1	1	USRTblock	1	USRT	18	600000	#ff0000	10pct	1	50pct	50pct	2000	74837	76843	74526	57	77352	509	0	1	16
6.1.1	win	2020-04-16	19:37:43	1	1	1	USRTblock	1	USRT	19	600000	#ff0000	10pct	1	50pct	50pct	6000	77356	83376	76843	57	83667	291	0	1	17
6.1.1	win	2020-04-16	19:37:43	1	1	1	USRTblock	1	USRT	20	600000	#ff0000	10pct	1	50pct	50pct	8000	83671	91693	83376	57	91958	265	0	1	18
6.1.1	win	2020-04-16	19:37:43	1	1	1	USRTblock	1	USRT	21	600000	#ff0000	10pct	1	50pct	50pct	5000	91963	96974	91693	57	97231	257	0	1	19
6.1.1	win	2020-04-16	19:37:43	1	1	1	USRTblock	1	USRT	22	600000	#ff0000	10pct	1	50pct	50pct	3000	97235	100240	96974	57	100535	295	0	1	20
6.1.1	win	2020-04-16	19:37:43	1	1	1	USRTblock	1	USRT	23	600000	#ff0000	10pct	1	50pct	50pct	3000	100539	103556	100240	57	104160	604	0	1	21
6.1.1	win	2020-04-16	19:37:43	1	1	1	USRTblock	1	USRT	24	600000	#ff0000	10pct	1	50pct	50pct	5000	104164	109173	103556	57	109553	380	0	1	22
6.1.1	win	2020-04-16	19:37:43	1	1	1	USRTblock	1	USRT	25	600000	#ff0000	10pct	1	50pct	50pct	8000	109556	117573	109173	57	117835	262	0	1	23
6.1.1	win	2020-04-16	19:37:43	1	1	1	USRTblock	1	USRT	26	600000	#ff0000	10pct	1	50pct	50pct	2000	117840	119855	117573	57	120142	287	0	1	24
6.1.1	win	2020-04-16	19:37:43	1	1	1	USRTblock	1	USRT	27	600000	#ff0000	10pct	1	50pct	50pct	8000	120146	128154	119855	57	128411	257	0	1	25
6.1.1	win	2020-04-16	19:37:43	1	1	1	USRTblock	1	USRT	28	600000	#ff0000	10pct	1	50pct	50pct	2000	128415	130421	128154	57	130723	302	0	1	26
6.1.1	win	2020-04-16	19:37:43	1	1	1	USRTblock	1	USRT	29	600000	#ff0000	10pct	1	50pct	50pct	5000	130728	135737	130421	57	136043	306	0	1	27
6.1.1	win	2020-04-16	19:37:43	1	1	1	USRTblock	1	USRT	30	600000	#ff0000	10pct	1	50pct	50pct	3000	136046	139053	135737	57	139386	333	0	1	28
6.1.1	win	2020-04-16	19:37:43	1	1	1	USRTblock	1	USRT	31	600000	#ff0000	10pct	1	50pct	50pct	6000	139389	145402	139053	57	145791	389	0	1	29
6.1.1	win	2020-04-16	19:37:43	1	1	1	USRTblock	1	USRT	32	600000	#ff0000	10pct	1	50pct	50pct	4000	145794	149802	145402	57	150150	348	0	1	30
6.1.1	win	2020-04-16	19:37:43	1	1	1	USRTblock	1	USRT	33	600000	#ff0000	10pct	1	50pct	50pct	7000	150154	157168	149802	57	157459	291	0	1	31
6.1.1	win	2020-04-16	19:37:43	1	1	1	USRTblock	1	USRT	34	600000	#ff0000	10pct	1	50pct	50pct	8000	157463	165468	157168	57	165786	318	0	1	32
6.1.1	win	2020-04-16	19:37:43	1	1	1	USRTblock	1	USRT	35	600000	#ff0000	10pct	1	50pct	50pct	8000	165790	173800	165468	57	174073	273	0	1	33
6.1.1	win	2020-04-16	19:37:43	1	1	1	USRTblock	1	USRT	36	600000	#ff0000	10pct	1	50pct	50pct	2000	174076	176082	173800	57	176425	343	0	1	34
6.1.1	win	2020-04-16	19:37:43	1	1	1	USRTblock	1	USRT	37	600000	#ff0000	10pct	1	50pct	50pct	8000	176428	184449	176082	57	184716	267	0	1	35
6.1.1	win	2020-04-16	19:37:43	1	1	1	USRTblock	1	USRT	38	600000	#ff0000	10pct	1	50pct	50pct	5000	184720	189732	184449	57	190035	303	0	1	36
6.1.1	win	2020-04-16	19:37:43	1	1	1	USRTblock	1	USRT	39	600000	#ff0000	10pct	1	50pct	50pct	3000	190038	193047	189732	57	193361	314	0	1	37
6.1.1	win	2020-04-16	19:37:43	1	1	1	USRTblock	1	USRT	40	600000	#ff0000	10pct	1	50pct	50pct	4000	193365	197381	193047	57	197682	301	0	1	38
6.1.1	win	2020-04-16	19:37:43	1	1	1	USRTblock	1	USRT	41	600000	#ff0000	10pct	1	50pct	50pct	3000	197686	200697	197381	57	201015	318	0	1	39
6.1.1	win	2020-04-16	19:37:43	1	1	1	USRTblock	1	USRT	42	600000	#ff0000	10pct	1	50pct	50pct	8000	201019	209030	200697	57	209344	314	0	1	40
6.1.1	win	2020-04-16	19:37:43	1	1	1	USRTblock	1	USRT	43	600000	#ff0000	10pct	1	50pct	50pct	2000	209349	211362	209030	57	211757	395	0	1	41
6.1.1	win	2020-04-16	19:37:43	1	1	1	USRTblock	1	USRT	44	600000	#ff0000	10pct	1	50pct	50pct	6000	211760	217779	211362	57	218109	330	0	1	42
6.1.1	win	2020-04-16	19:37:43	1	1	1	USRTblock	1	USRT	45	600000	#ff0000	10pct	1	50pct	50pct	6000	218112	224128	217779	57	224401	273	0	1	43
6.1.1	win	2020-04-16	19:37:43	1	1	1	USRTblock	1	USRT	46	600000	#ff0000	10pct	1	50pct	50pct	3000	224405	227411	224128	57	227761	350	0	1	44
6.1.1	win	2020-04-16	19:37:43	1	1	1	USRTblock	1	USRT	47	600000	#ff0000	10pct	1	50pct	50pct	4000	227764	231777	227411	57	232093	316	0	1	45
6.1.1	win	2020-04-16	19:37:43	1	1	1	USRTblock	1	USRT	48	600000	#ff0000	10pct	1	50pct	50pct	7000	232096	239110	231777	57	239417	307	0	1	46
6.1.1	win	2020-04-16	19:37:43	1	1	1	USRTblock	1	USRT	49	600000	#ff0000	10pct	1	50pct	50pct	7000	239421	246426	239110	57	246750	324	0	1	47
6.1.1	win	2020-04-16	19:37:43	1	1	1	USRTblock	1	USRT	50	600000	#ff0000	10pct	1	50pct	50pct	3000	246753	249759	246426	57	250220	461	0	1	48
6.1.1	win	2020-04-16	19:37:43	1	1	1	USRTblock	1	USRT	51	600000	#ff0000	10pct	1	50pct	50pct	6000	250224	256242	249759	57	256580	338	0	1	49
6.1.1	win	2020-04-16	19:37:43	1	1	1	USRTblock	1	USRT	52	600000	#ff0000	10pct	1	50pct	50pct	6000	256583	262591	256242	57	262967	376	0	1	50
6.1.1	win	2020-04-16	19:37:43	1	1	1	USRTblock	1	USRT	53	600000	#ff0000	10pct	1	50pct	50pct	8000	262970	270990	262591	57	271301	311	0	1	51
6.1.1	win	2020-04-16	19:37:43	1	1	1	USRTblock	1	USRT	54	600000	#ff0000	10pct	1	50pct	50pct	7000	271305	278323	270990	57	278627	304	0	1	52
6.1.1	win	2020-04-16	19:37:43	1	1	1	USRTblock	1	USRT	55	600000	#ff0000	10pct	1	50pct	50pct	3000	278631	281639	278323	57	281955	316	0	1	53
6.1.1	win	2020-04-16	19:37:43	1	1	1	USRTblock	1	USRT	56	600000	#ff0000	10pct	1	50pct	50pct	7000	281959	288972	281639	57	289583	611	0	1	54
6.1.1	win	2020-04-16	19:37:43	1	1	1	USRTblock	1	USRT	57	600000	#ff0000	10pct	1	50pct	50pct	5000	289587	294604	288972	57	294910	306	0	1	55
6.1.1	win	2020-04-16	19:37:43	1	1	1	USRTblock	1	USRT	58	600000	#ff0000	10pct	1	50pct	50pct	8000	294913	302920	294604	57	303170	250	0	1	56
6.1.1	win	2020-04-16	19:37:43	1	1	1	USRTblock	1	USRT	59	600000	#ff0000	10pct	1	50pct	50pct	3000	303173	306186	302920	57	306536	350	0	1	57
6.1.1	win	2020-04-16	19:37:43	1	1	1	USRTblock	1	USRT	60	600000	#ff0000	10pct	1	50pct	50pct	6000	306540	312553	306186	57	312895	342	0	1	58
6.1.1	win	2020-04-16	19:37:43	1	1	1	USRTblock	1	USRT	61	600000	#ff0000	10pct	1	50pct	50pct	7000	312899	319918	312553	57	320209	291	0	1	59
6.1.1	win	2020-04-16	19:37:43	1	1	1	USRTblock	1	USRT	62	600000	#ff0000	10pct	1	50pct	50pct	7000	320213	327234	319918	57	327537	303	0	1	60
6.1.1	win	2020-04-16	19:37:43	1	1	1	USRTblock	1	USRT	63	600000	#ff0000	10pct	1	50pct	50pct	8000	327541	335551	327234	57	335857	306	0	1	61
6.1.1	win	2020-04-16	19:37:43	1	1	1	USRTblock	1	USRT	64	600000	#ff0000	10pct	1	50pct	50pct	8000	335860	343867	335551	57	344158	291	0	1	62
6.1.1	win	2020-04-16	19:37:43	1	1	1	USRTblock	1	USRT	65	600000	#ff0000	10pct	1	50pct	50pct	3000	344161	347183	343867	57	347495	312	0	1	63
6.1.1	win	2020-04-16	19:37:43	1	1	1	USRTblock	1	USRT	66	600000	#ff0000	10pct	1	50pct	50pct	4000	347500	351515	347183	57	351840	325	0	1	64
6.1.1	win	2020-04-16	19:37:43	1	1	1	USRTblock	1	USRT	67	600000	#ff0000	10pct	1	50pct	50pct	8000	351843	359848	351515	57	360178	330	0	1	65
6.1.1	win	2020-04-16	19:37:43	1	1	1	USRTblock	1	USRT	68	600000	#ff0000	10pct	1	50pct	50pct	2000	360182	362197	359848	57	362678	481	0	1	66
6.1.1	win	2020-04-16	19:37:43	1	1	1	USRTblock	1	USRT	69	600000	#ff0000	10pct	1	50pct	50pct	8000	362681	370697	362197	57	370959	262	0	1	67
6.1.1	win	2020-04-16	19:37:43	1	1	1	USRTblock	1	USRT	70	600000	#ff0000	10pct	1	50pct	50pct	3000	370963	373979	370697	57	374342	363	0	1	68
6.1.1	win	2020-04-16	19:37:43	1	1	1	USRTblock	1	USRT	71	600000	#ff0000	10pct	1	50pct	50pct	7000	374345	381363	373979	57	381640	277	0	1	69
6.1.1	win	2020-04-16	19:37:43	1	1	1	USRTblock	1	USRT	72	600000	#ff0000	10pct	1	50pct	50pct	7000	381643	388662	381363	57	388913	251	0	1	70
6.1.1	win	2020-04-16	19:37:43	1	1	1	USRTblock	1	USRT	73	600000	#ff0000	10pct	1	50pct	50pct	2000	388917	390928	388662	57	391259	331	0	1	71
6.1.1	win	2020-04-16	19:37:43	1	1	1	USRTblock	1	USRT	74	600000	#ff0000	10pct	1	50pct	50pct	7000	391262	398278	390928	57	398553	275	0	1	72
6.1.1	win	2020-04-16	19:37:43	1	1	1	USRTblock	1	USRT	75	600000	#ff0000	10pct	1	50pct	50pct	5000	398557	403577	398278	57	403847	270	0	1	73
6.1.1	win	2020-04-16	19:37:43	1	1	1	USRTblock	1	USRT	76	600000	#ff0000	10pct	1	50pct	50pct	3000	403851	406860	403577	57	407281	421	0	1	74
6.1.1	win	2020-04-16	19:37:43	1	1	1	USRTblock	1	USRT	77	600000	#ff0000	10pct	1	50pct	50pct	3000	407285	410293	406860	57	410550	257	0	1	75
6.1.1	win	2020-04-16	19:37:43	1	1	1	USRTblock	1	USRT	78	600000	#ff0000	10pct	1	50pct	50pct	5000	410554	415575	410293	57	415846	271	0	1	76
6.1.1	win	2020-04-16	19:37:43	1	1	1	USRTblock	1	USRT	79	600000	#ff0000	10pct	1	50pct	50pct	6000	415850	421859	415575	57	422134	275	0	1	77
6.1.1	win	2020-04-16	19:37:43	1	1	1	USRTblock	1	USRT	80	600000	#ff0000	10pct	1	50pct	50pct	2000	422137	424158	421859	57	424509	351	0	1	78
6.1.1	win	2020-04-16	19:37:43	1	1	1	USRTblock	1	USRT	81	600000	#ff0000	10pct	1	50pct	50pct	3000	424512	427524	424158	57	427876	352	0	1	79
6.1.1	win	2020-04-16	19:37:43	1	1	1	USRTblock	1	USRT	82	600000	#ff0000	10pct	1	50pct	50pct	7000	427880	434891	427524	57	435168	277	0	1	80
6.1.1	win	2020-04-16	19:37:43	1	1	1	USRTblock	1	USRT	83	600000	#ff0000	10pct	1	50pct	50pct	4000	435171	439190	434891	57	439438	248	0	1	81
6.1.1	win	2020-04-16	19:37:43	1	1	1	USRTblock	1	USRT	84	600000	#ff0000	10pct	1	50pct	50pct	2000	439442	441456	439190	57	441787	331	0	1	82
6.1.1	win	2020-04-16	19:37:43	1	1	1	USRTblock	1	USRT	85	600000	#ff0000	10pct	1	50pct	50pct	7000	441790	448806	441456	57	449291	485	0	1	83
6.1.1	win	2020-04-16	19:37:43	1	1	1	USRTblock	1	USRT	86	600000	#ff0000	10pct	1	50pct	50pct	4000	449294	453305	448806	57	453557	252	0	1	84
6.1.1	win	2020-04-16	19:37:43	1	1	1	USRTblock	1	USRT	87	600000	#ff0000	10pct	1	50pct	50pct	4000	453560	457572	453305	57	457890	318	0	1	85
6.1.1	win	2020-04-16	19:37:43	1	1	1	USRTblock	1	USRT	88	600000	#ff0000	10pct	1	50pct	50pct	6000	457893	463905	457572	57	464198	293	0	1	86
6.1.1	win	2020-04-16	19:37:43	1	1	1	USRTblock	1	USRT	89	600000	#ff0000	10pct	1	50pct	50pct	4000	464202	468220	463905	57	468553	333	0	1	87
6.1.1	win	2020-04-16	19:37:43	1	1	1	USRTblock	1	USRT	90	600000	#ff0000	10pct	1	50pct	50pct	5000	468557	473570	468220	57	473829	259	0	1	88
6.1.1	win	2020-04-16	19:37:43	1	1	1	USRTblock	1	USRT	91	600000	#ff0000	10pct	1	50pct	50pct	6000	473833	479852	473570	57	480145	293	0	1	89
6.1.1	win	2020-04-16	19:37:43	1	1	1	USRTblock	1	USRT	92	600000	#ff0000	10pct	1	50pct	50pct	6000	480148	486169	479852	57	486454	285	0	1	90
6.1.1	win	2020-04-16	19:37:43	1	1	1	USRTblock	1	USRT	93	600000	#ff0000	10pct	1	50pct	50pct	6000	486457	492468	486169	57	492803	335	0	1	91
6.1.1	win	2020-04-16	19:37:43	1	1	1	USRTblock	1	USRT	94	600000	#ff0000	10pct	1	50pct	50pct	7000	492807	499818	492468	57	500117	299	0	1	92
6.1.1	win	2020-04-16	19:37:43	1	1	1	USRTblock	1	USRT	95	600000	#ff0000	10pct	1	50pct	50pct	6000	500121	506134	499818	57	506393	259	0	1	93
6.1.1	win	2020-04-16	19:37:43	1	1	1	USRTblock	1	USRT	96	600000	#ff0000	10pct	1	50pct	50pct	6000	506396	512416	506134	57	512792	376	0	1	94
6.1.1	win	2020-04-16	19:37:43	1	1	1	USRTblock	1	USRT	97	600000	#ff0000	10pct	1	50pct	50pct	4000	512796	516816	512416	57	517121	305	0	1	95
6.1.1	win	2020-04-16	19:37:43	1	1	1	USRTblock	1	USRT	98	600000	#ff0000	10pct	1	50pct	50pct	7000	517124	524132	516816	57	524449	317	0	1	96
6.1.1	win	2020-04-16	19:37:43	1	1	1	USRTblock	1	USRT	99	600000	#ff0000	10pct	1	50pct	50pct	5000	524452	529464	524132	57	529830	366	0	1	97
6.1.1	win	2020-04-16	19:37:43	1	1	1	USRTblock	1	USRT	100	600000	#ff0000	10pct	1	50pct	50pct	4000	529834	533847	529464	57	534260	413	0	1	98
6.1.1	win	2020-04-16	19:37:43	1	1	1	USRTblock	1	USRT	101	600000	#ff0000	10pct	1	50pct	50pct	3000	534265	537280	533847	57	537572	292	0	1	99
6.1.1	win	2020-04-16	19:37:43	1	1	1	USRTblock	1	USRT	102	600000	#ff0000	10pct	1	50pct	50pct	7000	537576	544596	537280	57	544854	258	0	1	100
6.1.1	win	2020-04-16	19:37:43	1	1	1	USRTblock	1	USRT	103	600000	#ff0000	10pct	1	50pct	50pct	7000	544858	-1	544596	57	550810	0	1	2	101
6.1.1	win	2020-04-16	19:37:43	1	1	1	USRTblock	1	USRT	104	600000	#ff0000	10pct	1	50pct	50pct	6000	550815	556828	-1	57	557167	339	0	2	102
6.1.1	win	2020-04-16	19:37:43	1	1	1	USRTblock	1	USRT	105	600000	#ff0000	10pct	1	50pct	50pct	2000	557172	559194	556828	57	559796	602	0	2	103
6.1.1	win	2020-04-16	19:37:43	1	1	1	USRTblock	1	USRT	106	600000	#ff0000	10pct	1	50pct	50pct	7000	559800	566811	559194	57	567090	279	0	2	104
6.1.1	win	2020-04-16	19:37:43	1	1	1	USRTblock	1	USRT	107	600000	#ff0000	10pct	1	50pct	50pct	2000	567093	569110	566811	57	569531	421	0	2	105
6.1.1	win	2020-04-16	19:37:43	1	1	1	USRTblock	1	USRT	108	600000	#ff0000	10pct	1	50pct	50pct	5000	569535	574543	569110	57	574872	329	0	2	106
6.1.1	win	2020-04-16	19:37:43	1	1	1	USRTblock	1	USRT	109	600000	#ff0000	10pct	1	50pct	50pct	4000	574875	578892	574543	57	579217	325	0	2	107
6.1.1	win	2020-04-16	19:37:43	1	1	1	USRTblock	1	USRT	110	600000	#ff0000	10pct	1	50pct	50pct	8000	579220	587225	578892	57	587539	314	0	2	108
6.1.1	win	2020-04-16	19:37:43	1	1	1	USRTblock	1	USRT	111	600000	#ff0000	10pct	1	50pct	50pct	4000	587543	591558	587225	57	591904	346	0	2	109
6.1.1	win	2020-04-16	19:37:43	1	1	1	USRTblock	1	USRT	112	600000	#ff0000	10pct	1	50pct	50pct	6000	591907	597924	591558	57	598260	336	0	2	110
6.1.1	win	2020-04-16	19:37:43	1	1	1	USRTblock	1	USRT	113	600000	#ff0000	10pct	1	50pct	50pct	3000	598265	601274	597924	57	601630	356	0	2	111
6.1.1	win	2020-04-16	19:37:43	1	1	1	USRTblock	1	USRT	114	600000	#ff0000	10pct	1	50pct	50pct	5000	601634	-1	601274	0	601747	0	1	3	112
