build	computer.platform	date	time	subject	group	sessionid	blockcode	blocknum	trialcode	trialnum	testduration	targetcolor	targetsize	fixed	targetx	targety	stiminterval	trialStart	shape.targetcircle.timestamp	lastCircleTimestamp	response	rt_elapsed	rt	EarlyResponse	countEarlyResponses	countResponses
6.1.1	win	2020-04-17	19:24:37	1	1	1	USRTblock	1	USRT	3	600000	#ff0000	10pct	1	50pct	50pct	6000	3484	9490	2720	57	9796	306	0	0	1
6.1.1	win	2020-04-17	19:24:37	1	1	1	USRTblock	1	USRT	4	600000	#ff0000	10pct	1	50pct	50pct	3000	9814	12823	9490	57	13097	274	0	0	2
6.1.1	win	2020-04-17	19:24:37	1	1	1	USRTblock	1	USRT	5	600000	#ff0000	10pct	1	50pct	50pct	5000	13101	18122	12823	57	18378	256	0	0	3
6.1.1	win	2020-04-17	19:24:37	1	1	1	USRTblock	1	USRT	6	600000	#ff0000	10pct	1	50pct	50pct	8000	18381	26388	18122	57	26668	280	0	0	4
6.1.1	win	2020-04-17	19:24:37	1	1	1	USRTblock	1	USRT	7	600000	#ff0000	10pct	1	50pct	50pct	3000	26673	29687	26388	57	30061	374	0	0	5
6.1.1	win	2020-04-17	19:24:37	1	1	1	USRTblock	1	USRT	8	600000	#ff0000	10pct	1	50pct	50pct	5000	30064	35071	29687	57	35397	326	0	0	6
6.1.1	win	2020-04-17	19:24:37	1	1	1	USRTblock	1	USRT	9	600000	#ff0000	10pct	1	50pct	50pct	7000	35402	42420	35071	57	42868	448	0	0	7
6.1.1	win	2020-04-17	19:24:37	1	1	1	USRTblock	1	USRT	10	600000	#ff0000	10pct	1	50pct	50pct	5000	42872	47886	42420	57	48214	328	0	0	8
6.1.1	win	2020-04-17	19:24:37	1	1	1	USRTblock	1	USRT	11	600000	#ff0000	10pct	1	50pct	50pct	6000	48219	54236	47886	57	54548	312	0	0	9
6.1.1	win	2020-04-17	19:24:37	1	1	1	USRTblock	1	USRT	12	600000	#ff0000	10pct	1	50pct	50pct	6000	54551	60568	54236	57	60816	248	0	0	10
6.1.1	win	2020-04-17	19:24:37	1	1	1	USRTblock	1	USRT	13	600000	#ff0000	10pct	1	50pct	50pct	2000	60820	62834	60568	57	63179	345	0	0	11
6.1.1	win	2020-04-17	19:24:37	1	1	1	USRTblock	1	USRT	14	600000	#ff0000	10pct	1	50pct	50pct	7000	63182	70201	62834	57	70454	253	0	0	12
6.1.1	win	2020-04-17	19:24:37	1	1	1	USRTblock	1	USRT	15	600000	#ff0000	10pct	1	50pct	50pct	5000	70457	75466	70201	57	75813	347	0	0	13
6.1.1	win	2020-04-17	19:24:37	1	1	1	USRTblock	1	USRT	16	600000	#ff0000	10pct	1	50pct	50pct	7000	75817	82833	75466	57	83211	378	0	0	14
6.1.1	win	2020-04-17	19:24:37	1	1	1	USRTblock	1	USRT	17	600000	#ff0000	10pct	1	50pct	50pct	7000	83214	90232	82833	57	90533	301	0	0	15
6.1.1	win	2020-04-17	19:24:37	1	1	1	USRTblock	1	USRT	18	600000	#ff0000	10pct	1	50pct	50pct	8000	90536	98547	90232	57	98804	257	0	0	16
6.1.1	win	2020-04-17	19:24:37	1	1	1	USRTblock	1	USRT	19	600000	#ff0000	10pct	1	50pct	50pct	3000	98809	101830	98547	57	102148	318	0	0	17
6.1.1	win	2020-04-17	19:24:37	1	1	1	USRTblock	1	USRT	20	600000	#ff0000	10pct	1	50pct	50pct	2000	102152	104163	101830	57	104530	367	0	0	18
6.1.1	win	2020-04-17	19:24:37	1	1	1	USRTblock	1	USRT	21	600000	#ff0000	10pct	1	50pct	50pct	8000	104534	112547	104163	57	112890	343	0	0	19
6.1.1	win	2020-04-17	19:24:37	1	1	1	USRTblock	1	USRT	22	600000	#ff0000	10pct	1	50pct	50pct	2000	112893	114912	112547	57	115199	287	0	0	20
6.1.1	win	2020-04-17	19:24:37	1	1	1	USRTblock	1	USRT	23	600000	#ff0000	10pct	1	50pct	50pct	4000	115204	119212	114912	57	119487	275	0	0	21
6.1.1	win	2020-04-17	19:24:37	1	1	1	USRTblock	1	USRT	24	600000	#ff0000	10pct	1	50pct	50pct	7000	119491	126511	119212	57	126852	341	0	0	22
6.1.1	win	2020-04-17	19:24:37	1	1	1	USRTblock	1	USRT	25	600000	#ff0000	10pct	1	50pct	50pct	8000	126855	134860	126511	57	135096	236	0	0	23
6.1.1	win	2020-04-17	19:24:37	1	1	1	USRTblock	1	USRT	26	600000	#ff0000	10pct	1	50pct	50pct	4000	135100	139110	134860	57	139422	312	0	0	24
6.1.1	win	2020-04-17	19:24:37	1	1	1	USRTblock	1	USRT	27	600000	#ff0000	10pct	1	50pct	50pct	5000	139426	144443	139110	57	144717	274	0	0	25
6.1.1	win	2020-04-17	19:24:37	1	1	1	USRTblock	1	USRT	28	600000	#ff0000	10pct	1	50pct	50pct	7000	144720	151726	144443	57	151964	238	0	0	26
6.1.1	win	2020-04-17	19:24:37	1	1	1	USRTblock	1	USRT	29	600000	#ff0000	10pct	1	50pct	50pct	5000	151969	156991	151726	57	157294	303	0	0	27
6.1.1	win	2020-04-17	19:24:37	1	1	1	USRTblock	1	USRT	30	600000	#ff0000	10pct	1	50pct	50pct	2000	157298	159308	156991	57	159703	395	0	0	28
6.1.1	win	2020-04-17	19:24:37	1	1	1	USRTblock	1	USRT	31	600000	#ff0000	10pct	1	50pct	50pct	5000	159707	164724	159308	57	164961	237	0	0	29
6.1.1	win	2020-04-17	19:24:37	1	1	1	USRTblock	1	USRT	32	600000	#ff0000	10pct	1	50pct	50pct	4000	164964	168973	164724	57	169250	277	0	0	30
6.1.1	win	2020-04-17	19:24:37	1	1	1	USRTblock	1	USRT	33	600000	#ff0000	10pct	1	50pct	50pct	2000	169254	171273	168973	57	171661	388	0	0	31
6.1.1	win	2020-04-17	19:24:37	1	1	1	USRTblock	1	USRT	34	600000	#ff0000	10pct	1	50pct	50pct	6000	171664	177673	171273	57	177945	272	0	0	32
6.1.1	win	2020-04-17	19:24:37	1	1	1	USRTblock	1	USRT	35	600000	#ff0000	10pct	1	50pct	50pct	7000	177949	184956	177673	57	185230	274	0	0	33
6.1.1	win	2020-04-17	19:24:37	1	1	1	USRTblock	1	USRT	36	600000	#ff0000	10pct	1	50pct	50pct	8000	185234	193255	184956	57	193491	236	0	0	34
6.1.1	win	2020-04-17	19:24:37	1	1	1	USRTblock	1	USRT	37	600000	#ff0000	10pct	1	50pct	50pct	6000	193495	199504	193255	57	199804	300	0	0	35
6.1.1	win	2020-04-17	19:24:37	1	1	1	USRTblock	1	USRT	38	600000	#ff0000	10pct	1	50pct	50pct	3000	199809	202820	199504	57	203129	309	0	0	36
6.1.1	win	2020-04-17	19:24:37	1	1	1	USRTblock	1	USRT	39	600000	#ff0000	10pct	1	50pct	50pct	3000	203133	206153	202820	57	206660	507	0	0	37
6.1.1	win	2020-04-17	19:24:37	1	1	1	USRTblock	1	USRT	40	600000	#ff0000	10pct	1	50pct	50pct	5000	206663	211669	206153	57	211924	255	0	0	38
6.1.1	win	2020-04-17	19:24:37	1	1	1	USRTblock	1	USRT	41	600000	#ff0000	10pct	1	50pct	50pct	6000	211927	217935	211669	57	218207	272	0	0	39
6.1.1	win	2020-04-17	19:24:37	1	1	1	USRTblock	1	USRT	42	600000	#ff0000	10pct	1	50pct	50pct	3000	218211	221218	217935	57	221557	339	0	0	40
6.1.1	win	2020-04-17	19:24:37	1	1	1	USRTblock	1	USRT	43	600000	#ff0000	10pct	1	50pct	50pct	5000	221561	226568	221218	57	226865	297	0	0	41
6.1.1	win	2020-04-17	19:24:37	1	1	1	USRTblock	1	USRT	44	600000	#ff0000	10pct	1	50pct	50pct	4000	226869	230884	226568	57	231188	304	0	0	42
6.1.1	win	2020-04-17	19:24:37	1	1	1	USRTblock	1	USRT	45	600000	#ff0000	10pct	1	50pct	50pct	2000	231192	233200	230884	57	233560	360	0	0	43
6.1.1	win	2020-04-17	19:24:37	1	1	1	USRTblock	1	USRT	46	600000	#ff0000	10pct	1	50pct	50pct	2000	233564	235583	233200	57	235899	316	0	0	44
6.1.1	win	2020-04-17	19:24:37	1	1	1	USRTblock	1	USRT	47	600000	#ff0000	10pct	1	50pct	50pct	7000	235903	-1	235583	57	238999	0	1	1	45
6.1.1	win	2020-04-17	19:24:37	1	1	1	USRTblock	1	USRT	48	600000	#ff0000	10pct	1	50pct	50pct	4000	239003	243016	-1	57	243285	269	0	1	46
6.1.1	win	2020-04-17	19:24:37	1	1	1	USRTblock	1	USRT	49	600000	#ff0000	10pct	1	50pct	50pct	6000	243288	249299	243016	57	249541	242	0	1	47
6.1.1	win	2020-04-17	19:24:37	1	1	1	USRTblock	1	USRT	50	600000	#ff0000	10pct	1	50pct	50pct	8000	249544	257565	249299	57	257809	244	0	1	48
6.1.1	win	2020-04-17	19:24:37	1	1	1	USRTblock	1	USRT	51	600000	#ff0000	10pct	1	50pct	50pct	6000	257812	263831	257565	57	264159	328	0	1	49
6.1.1	win	2020-04-17	19:24:37	1	1	1	USRTblock	1	USRT	52	600000	#ff0000	10pct	1	50pct	50pct	6000	264162	270180	263831	57	270537	357	0	1	50
6.1.1	win	2020-04-17	19:24:37	1	1	1	USRTblock	1	USRT	53	600000	#ff0000	10pct	1	50pct	50pct	7000	270541	277563	270180	57	277921	358	0	1	51
6.1.1	win	2020-04-17	19:24:37	1	1	1	USRTblock	1	USRT	54	600000	#ff0000	10pct	1	50pct	50pct	8000	277924	285945	277563	57	286287	342	0	1	52
6.1.1	win	2020-04-17	19:24:37	1	1	1	USRTblock	1	USRT	55	600000	#ff0000	10pct	1	50pct	50pct	7000	286290	293311	285945	57	293550	239	0	1	53
6.1.1	win	2020-04-17	19:24:37	1	1	1	USRTblock	1	USRT	56	600000	#ff0000	10pct	1	50pct	50pct	6000	293553	299560	293311	57	299892	332	0	1	54
6.1.1	win	2020-04-17	19:24:37	1	1	1	USRTblock	1	USRT	57	600000	#ff0000	10pct	1	50pct	50pct	5000	299895	304910	299560	57	305208	298	0	1	55
6.1.1	win	2020-04-17	19:24:37	1	1	1	USRTblock	1	USRT	58	600000	#ff0000	10pct	1	50pct	50pct	5000	305212	310226	304910	57	310479	253	0	1	56
6.1.1	win	2020-04-17	19:24:37	1	1	1	USRTblock	1	USRT	59	600000	#ff0000	10pct	1	50pct	50pct	3000	310482	313492	310226	57	313801	309	0	1	57
6.1.1	win	2020-04-17	19:24:37	1	1	1	USRTblock	1	USRT	60	600000	#ff0000	10pct	1	50pct	50pct	5000	313805	318825	313492	57	319277	452	0	1	58
6.1.1	win	2020-04-17	19:24:37	1	1	1	USRTblock	1	USRT	61	600000	#ff0000	10pct	1	50pct	50pct	7000	319281	326292	318825	57	326513	221	0	1	59
6.1.1	win	2020-04-17	19:24:37	1	1	1	USRTblock	1	USRT	62	600000	#ff0000	10pct	1	50pct	50pct	6000	326517	332524	326292	57	332830	306	0	1	60
6.1.1	win	2020-04-17	19:24:37	1	1	1	USRTblock	1	USRT	63	600000	#ff0000	10pct	1	50pct	50pct	6000	332833	338840	332524	57	339255	415	0	1	61
6.1.1	win	2020-04-17	19:24:37	1	1	1	USRTblock	1	USRT	64	600000	#ff0000	10pct	1	50pct	50pct	2000	339258	341273	338840	57	341553	280	0	1	62
6.1.1	win	2020-04-17	19:24:37	1	1	1	USRTblock	1	USRT	65	600000	#ff0000	10pct	1	50pct	50pct	7000	341557	348572	341273	57	348842	270	0	1	63
6.1.1	win	2020-04-17	19:24:37	1	1	1	USRTblock	1	USRT	66	600000	#ff0000	10pct	1	50pct	50pct	5000	348846	353855	348572	57	354129	274	0	1	64
6.1.1	win	2020-04-17	19:24:37	1	1	1	USRTblock	1	USRT	67	600000	#ff0000	10pct	1	50pct	50pct	3000	354132	357138	353855	57	357421	283	0	1	65
6.1.1	win	2020-04-17	19:24:37	1	1	1	USRTblock	1	USRT	68	600000	#ff0000	10pct	1	50pct	50pct	5000	357424	362438	357138	57	362696	258	0	1	66
6.1.1	win	2020-04-17	19:24:37	1	1	1	USRTblock	1	USRT	69	600000	#ff0000	10pct	1	50pct	50pct	7000	362700	369721	362438	57	370014	293	0	1	67
6.1.1	win	2020-04-17	19:24:37	1	1	1	USRTblock	1	USRT	70	600000	#ff0000	10pct	1	50pct	50pct	3000	370017	373036	369721	57	373660	624	0	1	68
6.1.1	win	2020-04-17	19:24:37	1	1	1	USRTblock	1	USRT	71	600000	#ff0000	10pct	1	50pct	50pct	8000	373664	381669	373036	57	381939	270	0	1	69
6.1.1	win	2020-04-17	19:24:37	1	1	1	USRTblock	1	USRT	72	600000	#ff0000	10pct	1	50pct	50pct	3000	381944	384951	381669	57	385250	299	0	1	70
6.1.1	win	2020-04-17	19:24:37	1	1	1	USRTblock	1	USRT	73	600000	#ff0000	10pct	1	50pct	50pct	7000	385254	392268	384951	57	392572	304	0	1	71
6.1.1	win	2020-04-17	19:24:37	1	1	1	USRTblock	1	USRT	74	600000	#ff0000	10pct	1	50pct	50pct	6000	392575	398584	392268	57	398861	277	0	1	72
6.1.1	win	2020-04-17	19:24:37	1	1	1	USRTblock	1	USRT	75	600000	#ff0000	10pct	1	50pct	50pct	7000	398865	405883	398584	57	406102	219	0	1	73
6.1.1	win	2020-04-17	19:24:37	1	1	1	USRTblock	1	USRT	76	600000	#ff0000	10pct	1	50pct	50pct	4000	406105	410116	405883	57	410396	280	0	1	74
6.1.1	win	2020-04-17	19:24:37	1	1	1	USRTblock	1	USRT	77	600000	#ff0000	10pct	1	50pct	50pct	2000	410399	412416	410116	57	412749	333	0	1	75
6.1.1	win	2020-04-17	19:24:37	1	1	1	USRTblock	1	USRT	78	600000	#ff0000	10pct	1	50pct	50pct	5000	412752	417766	412416	57	418020	254	0	1	76
6.1.1	win	2020-04-17	19:24:37	1	1	1	USRTblock	1	USRT	79	600000	#ff0000	10pct	1	50pct	50pct	6000	418023	424032	417766	57	424319	287	0	1	77
6.1.1	win	2020-04-17	19:24:37	1	1	1	USRTblock	1	USRT	80	600000	#ff0000	10pct	1	50pct	50pct	2000	424323	426331	424032	57	426702	371	0	1	78
6.1.1	win	2020-04-17	19:24:37	1	1	1	USRTblock	1	USRT	81	600000	#ff0000	10pct	1	50pct	50pct	7000	426706	433714	426331	57	434004	290	0	1	79
6.1.1	win	2020-04-17	19:24:37	1	1	1	USRTblock	1	USRT	82	600000	#ff0000	10pct	1	50pct	50pct	5000	434007	439013	433714	57	439365	352	0	1	80
6.1.1	win	2020-04-17	19:24:37	1	1	1	USRTblock	1	USRT	83	600000	#ff0000	10pct	1	50pct	50pct	2000	439368	441379	439013	57	441911	532	0	1	81
6.1.1	win	2020-04-17	19:24:37	1	1	1	USRTblock	1	USRT	84	600000	#ff0000	10pct	1	50pct	50pct	6000	441915	447929	441379	57	448236	307	0	1	82
6.1.1	win	2020-04-17	19:24:37	1	1	1	USRTblock	1	USRT	85	600000	#ff0000	10pct	1	50pct	50pct	7000	448240	455245	447929	57	455612	367	0	1	83
6.1.1	win	2020-04-17	19:24:37	1	1	1	USRTblock	1	USRT	86	600000	#ff0000	10pct	1	50pct	50pct	2000	455616	457628	455245	57	458078	450	0	1	84
6.1.1	win	2020-04-17	19:24:37	1	1	1	USRTblock	1	USRT	87	600000	#ff0000	10pct	1	50pct	50pct	6000	458082	464094	457628	57	464356	262	0	1	85
6.1.1	win	2020-04-17	19:24:37	1	1	1	USRTblock	1	USRT	88	600000	#ff0000	10pct	1	50pct	50pct	4000	464359	468377	464094	57	468645	268	0	1	86
6.1.1	win	2020-04-17	19:24:37	1	1	1	USRTblock	1	USRT	89	600000	#ff0000	10pct	1	50pct	50pct	6000	468648	474659	468377	57	474924	265	0	1	87
6.1.1	win	2020-04-17	19:24:37	1	1	1	USRTblock	1	USRT	90	600000	#ff0000	10pct	1	50pct	50pct	7000	474927	481942	474659	57	482397	455	0	1	88
6.1.1	win	2020-04-17	19:24:37	1	1	1	USRTblock	1	USRT	91	600000	#ff0000	10pct	1	50pct	50pct	2000	482400	484408	481942	57	484752	344	0	1	89
6.1.1	win	2020-04-17	19:24:37	1	1	1	USRTblock	1	USRT	92	600000	#ff0000	10pct	1	50pct	50pct	5000	484756	489775	484408	57	490034	259	0	1	90
6.1.1	win	2020-04-17	19:24:37	1	1	1	USRTblock	1	USRT	93	600000	#ff0000	10pct	1	50pct	50pct	3000	490037	493058	489775	57	493390	332	0	1	91
6.1.1	win	2020-04-17	19:24:37	1	1	1	USRTblock	1	USRT	94	600000	#ff0000	10pct	1	50pct	50pct	7000	493394	500408	493058	57	500736	328	0	1	92
6.1.1	win	2020-04-17	19:24:37	1	1	1	USRTblock	1	USRT	95	600000	#ff0000	10pct	1	50pct	50pct	4000	500739	504756	500408	57	505095	339	0	1	93
6.1.1	win	2020-04-17	19:24:37	1	1	1	USRTblock	1	USRT	96	600000	#ff0000	10pct	1	50pct	50pct	5000	505099	510106	504756	57	510357	251	0	1	94
6.1.1	win	2020-04-17	19:24:37	1	1	1	USRTblock	1	USRT	97	600000	#ff0000	10pct	1	50pct	50pct	6000	510360	516373	510106	57	516660	287	0	1	95
6.1.1	win	2020-04-17	19:24:37	1	1	1	USRTblock	1	USRT	98	600000	#ff0000	10pct	1	50pct	50pct	3000	516663	519672	516373	57	519936	264	0	1	96
6.1.1	win	2020-04-17	19:24:37	1	1	1	USRTblock	1	USRT	99	600000	#ff0000	10pct	1	50pct	50pct	5000	519940	524955	519672	57	525201	246	0	1	97
6.1.1	win	2020-04-17	19:24:37	1	1	1	USRTblock	1	USRT	100	600000	#ff0000	10pct	1	50pct	50pct	5000	525204	530221	524955	57	530500	279	0	1	98
6.1.1	win	2020-04-17	19:24:37	1	1	1	USRTblock	1	USRT	101	600000	#ff0000	10pct	1	50pct	50pct	5000	530504	535521	530221	57	535786	265	0	1	99
6.1.1	win	2020-04-17	19:24:37	1	1	1	USRTblock	1	USRT	102	600000	#ff0000	10pct	1	50pct	50pct	7000	535789	542803	535521	57	543038	235	0	1	100
6.1.1	win	2020-04-17	19:24:37	1	1	1	USRTblock	1	USRT	103	600000	#ff0000	10pct	1	50pct	50pct	2000	543042	545052	542803	57	545466	414	0	1	101
6.1.1	win	2020-04-17	19:24:37	1	1	1	USRTblock	1	USRT	104	600000	#ff0000	10pct	1	50pct	50pct	7000	545469	-1	545052	57	551508	0	1	2	102
6.1.1	win	2020-04-17	19:24:37	1	1	1	USRTblock	1	USRT	105	600000	#ff0000	10pct	1	50pct	50pct	4000	551512	555519	-1	57	555813	294	0	2	103
6.1.1	win	2020-04-17	19:24:37	1	1	1	USRTblock	1	USRT	106	600000	#ff0000	10pct	1	50pct	50pct	8000	555816	563834	555519	57	564153	319	0	2	104
6.1.1	win	2020-04-17	19:24:37	1	1	1	USRTblock	1	USRT	107	600000	#ff0000	10pct	1	50pct	50pct	3000	564157	567166	563834	57	567463	297	0	2	105
6.1.1	win	2020-04-17	19:24:37	1	1	1	USRTblock	1	USRT	108	600000	#ff0000	10pct	1	50pct	50pct	6000	567467	573483	567166	57	573859	376	0	2	106
6.1.1	win	2020-04-17	19:24:37	1	1	1	USRTblock	1	USRT	109	600000	#ff0000	10pct	1	50pct	50pct	3000	573863	576883	573483	57	577289	406	0	2	107
6.1.1	win	2020-04-17	19:24:37	1	1	1	USRTblock	1	USRT	110	600000	#ff0000	10pct	1	50pct	50pct	4000	577293	581298	576883	57	581600	302	0	2	108
6.1.1	win	2020-04-17	19:24:37	1	1	1	USRTblock	1	USRT	111	600000	#ff0000	10pct	1	50pct	50pct	8000	581604	589615	581298	57	589876	261	0	2	109
6.1.1	win	2020-04-17	19:24:37	1	1	1	USRTblock	1	USRT	112	600000	#ff0000	10pct	1	50pct	50pct	7000	589880	596898	589615	57	597175	277	0	2	110
6.1.1	win	2020-04-17	19:24:37	1	1	1	USRTblock	1	USRT	113	600000	#ff0000	10pct	1	50pct	50pct	2000	597179	599197	596898	57	599622	425	0	2	111
6.1.1	win	2020-04-17	19:24:37	1	1	1	USRTblock	1	USRT	114	600000	#ff0000	10pct	1	50pct	50pct	6000	599625	-1	599197	0	599751	0	1	3	112
