build	computer.platform	date	time	subject	group	sessionid	blockcode	blocknum	trialcode	trialnum	testduration	targetcolor	targetsize	fixed	targetx	targety	stiminterval	trialStart	shape.targetcircle.timestamp	lastCircleTimestamp	response	rt_elapsed	rt	EarlyResponse	countEarlyResponses	countResponses
6.1.1	win	2020-04-16	16:45:29	1	1	1	USRTblock	1	USRT	3	600000	#ff0000	10pct	1	50pct	50pct	7000	6005	13027	5273	57	13257	230	0	0	1
6.1.1	win	2020-04-16	16:45:29	1	1	1	USRTblock	1	USRT	4	600000	#ff0000	10pct	1	50pct	50pct	7000	13312	20325	13027	57	20587	262	0	0	2
6.1.1	win	2020-04-16	16:45:29	1	1	1	USRTblock	1	USRT	5	600000	#ff0000	10pct	1	50pct	50pct	8000	20590	28608	20325	57	28869	261	0	0	3
6.1.1	win	2020-04-16	16:45:29	1	1	1	USRTblock	1	USRT	6	600000	#ff0000	10pct	1	50pct	50pct	6000	28872	34890	28608	57	35206	316	0	0	4
6.1.1	win	2020-04-16	16:45:29	1	1	1	USRTblock	1	USRT	7	600000	#ff0000	10pct	1	50pct	50pct	7000	35209	42224	34890	57	42473	249	0	0	5
6.1.1	win	2020-04-16	16:45:29	1	1	1	USRTblock	1	USRT	8	600000	#ff0000	10pct	1	50pct	50pct	8000	42477	50489	42224	57	50762	273	0	0	6
6.1.1	win	2020-04-16	16:45:29	1	1	1	USRTblock	1	USRT	9	600000	#ff0000	10pct	1	50pct	50pct	2000	50766	52771	50489	57	53072	301	0	0	7
6.1.1	win	2020-04-16	16:45:29	1	1	1	USRTblock	1	USRT	10	600000	#ff0000	10pct	1	50pct	50pct	6000	53075	59088	52771	57	59345	257	0	0	8
6.1.1	win	2020-04-16	16:45:29	1	1	1	USRTblock	1	USRT	11	600000	#ff0000	10pct	1	50pct	50pct	3000	59349	62354	59088	57	62665	311	0	0	9
6.1.1	win	2020-04-16	16:45:29	1	1	1	USRTblock	1	USRT	12	600000	#ff0000	10pct	1	50pct	50pct	8000	62668	70687	62354	57	70955	268	0	0	10
6.1.1	win	2020-04-16	16:45:29	1	1	1	USRTblock	1	USRT	13	600000	#ff0000	10pct	1	50pct	50pct	8000	70959	78969	70687	57	79281	312	0	0	11
6.1.1	win	2020-04-16	16:45:29	1	1	1	USRTblock	1	USRT	14	600000	#ff0000	10pct	1	50pct	50pct	2000	79284	81302	78969	57	81656	354	0	0	12
6.1.1	win	2020-04-16	16:45:29	1	1	1	USRTblock	1	USRT	15	600000	#ff0000	10pct	1	50pct	50pct	6000	81660	87669	81302	57	87950	281	0	0	13
6.1.1	win	2020-04-16	16:45:29	1	1	1	USRTblock	1	USRT	16	600000	#ff0000	10pct	1	50pct	50pct	5000	87953	92968	87669	57	93239	271	0	0	14
6.1.1	win	2020-04-16	16:45:29	1	1	1	USRTblock	1	USRT	17	600000	#ff0000	10pct	1	50pct	50pct	6000	93243	99250	92968	57	99603	353	0	0	15
6.1.1	win	2020-04-16	16:45:29	1	1	1	USRTblock	1	USRT	18	600000	#ff0000	10pct	1	50pct	50pct	5000	99607	104617	99250	57	104930	313	0	0	16
6.1.1	win	2020-04-16	16:45:29	1	1	1	USRTblock	1	USRT	19	600000	#ff0000	10pct	1	50pct	50pct	3000	104934	107949	104617	57	108318	369	0	0	17
6.1.1	win	2020-04-16	16:45:29	1	1	1	USRTblock	1	USRT	20	600000	#ff0000	10pct	1	50pct	50pct	3000	108322	111333	107949	57	111655	322	0	0	18
6.1.1	win	2020-04-16	16:45:29	1	1	1	USRTblock	1	USRT	21	600000	#ff0000	10pct	1	50pct	50pct	7000	111659	118665	111333	57	118924	259	0	0	19
6.1.1	win	2020-04-16	16:45:29	1	1	1	USRTblock	1	USRT	22	600000	#ff0000	10pct	1	50pct	50pct	4000	118928	122948	118665	57	123248	300	0	0	20
6.1.1	win	2020-04-16	16:45:29	1	1	1	USRTblock	1	USRT	23	600000	#ff0000	10pct	1	50pct	50pct	6000	123251	129264	122948	57	129521	257	0	0	21
6.1.1	win	2020-04-16	16:45:29	1	1	1	USRTblock	1	USRT	24	600000	#ff0000	10pct	1	50pct	50pct	4000	129524	133530	129264	57	133826	296	0	0	22
6.1.1	win	2020-04-16	16:45:29	1	1	1	USRTblock	1	USRT	25	600000	#ff0000	10pct	1	50pct	50pct	3000	133829	136846	133530	57	137159	313	0	0	23
6.1.1	win	2020-04-16	16:45:29	1	1	1	USRTblock	1	USRT	26	600000	#ff0000	10pct	1	50pct	50pct	2000	137162	139180	136846	57	139466	286	0	0	24
6.1.1	win	2020-04-16	16:45:29	1	1	1	USRTblock	1	USRT	27	600000	#ff0000	10pct	1	50pct	50pct	7000	139469	146479	139180	57	146790	311	0	0	25
6.1.1	win	2020-04-16	16:45:29	1	1	1	USRTblock	1	USRT	28	600000	#ff0000	10pct	1	50pct	50pct	2000	146793	148812	146479	57	149127	315	0	0	26
6.1.1	win	2020-04-16	16:45:29	1	1	1	USRTblock	1	USRT	29	600000	#ff0000	10pct	1	50pct	50pct	2000	149131	151145	148812	57	151424	279	0	0	27
6.1.1	win	2020-04-16	16:45:29	1	1	1	USRTblock	1	USRT	30	600000	#ff0000	10pct	1	50pct	50pct	8000	151428	159445	151145	57	159723	278	0	0	28
6.1.1	win	2020-04-16	16:45:29	1	1	1	USRTblock	1	USRT	31	600000	#ff0000	10pct	1	50pct	50pct	4000	159726	163744	159445	57	164067	323	0	0	29
6.1.1	win	2020-04-16	16:45:29	1	1	1	USRTblock	1	USRT	32	600000	#ff0000	10pct	1	50pct	50pct	3000	164070	167077	163744	57	167359	282	0	0	30
6.1.1	win	2020-04-16	16:45:29	1	1	1	USRTblock	1	USRT	33	600000	#ff0000	10pct	1	50pct	50pct	6000	167362	173376	167077	57	173712	336	0	0	31
6.1.1	win	2020-04-16	16:45:29	1	1	1	USRTblock	1	USRT	34	600000	#ff0000	10pct	1	50pct	50pct	3000	173716	176726	173376	57	177212	486	0	0	32
6.1.1	win	2020-04-16	16:45:29	1	1	1	USRTblock	1	USRT	35	600000	#ff0000	10pct	1	50pct	50pct	4000	177216	181225	176726	57	181518	293	0	0	33
6.1.1	win	2020-04-16	16:45:29	1	1	1	USRTblock	1	USRT	36	600000	#ff0000	10pct	1	50pct	50pct	3000	181522	184541	181225	57	184842	301	0	0	34
6.1.1	win	2020-04-16	16:45:29	1	1	1	USRTblock	1	USRT	37	600000	#ff0000	10pct	1	50pct	50pct	5000	184846	189858	184541	57	190127	269	0	0	35
6.1.1	win	2020-04-16	16:45:29	1	1	1	USRTblock	1	USRT	38	600000	#ff0000	10pct	1	50pct	50pct	3000	190131	193141	189858	57	193450	309	0	0	36
6.1.1	win	2020-04-16	16:45:29	1	1	1	USRTblock	1	USRT	39	600000	#ff0000	10pct	1	50pct	50pct	7000	193453	200474	193141	57	200746	272	0	0	37
6.1.1	win	2020-04-16	16:45:29	1	1	1	USRTblock	1	USRT	40	600000	#ff0000	10pct	1	50pct	50pct	6000	200750	206757	200474	57	207062	305	0	0	38
6.1.1	win	2020-04-16	16:45:29	1	1	1	USRTblock	1	USRT	41	600000	#ff0000	10pct	1	50pct	50pct	7000	207065	214073	206757	57	214386	313	0	0	39
6.1.1	win	2020-04-16	16:45:29	1	1	1	USRTblock	1	USRT	42	600000	#ff0000	10pct	1	50pct	50pct	5000	214390	219405	214073	57	219737	332	0	0	40
6.1.1	win	2020-04-16	16:45:29	1	1	1	USRTblock	1	USRT	43	600000	#ff0000	10pct	1	50pct	50pct	8000	219741	227754	219405	57	228115	361	0	0	41
6.1.1	win	2020-04-16	16:45:29	1	1	1	USRTblock	1	USRT	44	600000	#ff0000	10pct	1	50pct	50pct	4000	228119	232137	227754	57	232420	283	0	0	42
6.1.1	win	2020-04-16	16:45:29	1	1	1	USRTblock	1	USRT	45	600000	#ff0000	10pct	1	50pct	50pct	7000	232424	239437	232137	57	239765	328	0	0	43
6.1.1	win	2020-04-16	16:45:29	1	1	1	USRTblock	1	USRT	46	600000	#ff0000	10pct	1	50pct	50pct	7000	239769	246786	239437	57	247100	314	0	0	44
6.1.1	win	2020-04-16	16:45:29	1	1	1	USRTblock	1	USRT	47	600000	#ff0000	10pct	1	50pct	50pct	5000	247104	252118	246786	57	252418	300	0	0	45
6.1.1	win	2020-04-16	16:45:29	1	1	1	USRTblock	1	USRT	48	600000	#ff0000	10pct	1	50pct	50pct	2000	252422	254434	252118	57	254906	472	0	0	46
6.1.1	win	2020-04-16	16:45:29	1	1	1	USRTblock	1	USRT	49	600000	#ff0000	10pct	1	50pct	50pct	3000	254910	257918	254434	57	258190	272	0	0	47
6.1.1	win	2020-04-16	16:45:29	1	1	1	USRTblock	1	USRT	50	600000	#ff0000	10pct	1	50pct	50pct	3000	258194	261200	257918	57	261482	282	0	0	48
6.1.1	win	2020-04-16	16:45:29	1	1	1	USRTblock	1	USRT	51	600000	#ff0000	10pct	1	50pct	50pct	6000	261486	267500	261200	57	267789	289	0	0	49
6.1.1	win	2020-04-16	16:45:29	1	1	1	USRTblock	1	USRT	52	600000	#ff0000	10pct	1	50pct	50pct	3000	267793	270813	267500	57	271119	306	0	0	50
6.1.1	win	2020-04-16	16:45:29	1	1	1	USRTblock	1	USRT	53	600000	#ff0000	10pct	1	50pct	50pct	2000	271122	273133	270813	57	273484	351	0	0	51
6.1.1	win	2020-04-16	16:45:29	1	1	1	USRTblock	1	USRT	54	600000	#ff0000	10pct	1	50pct	50pct	2000	273487	275499	273133	57	275878	379	0	0	52
6.1.1	win	2020-04-16	16:45:29	1	1	1	USRTblock	1	USRT	55	600000	#ff0000	10pct	1	50pct	50pct	7000	275881	282899	275499	57	283190	291	0	0	53
6.1.1	win	2020-04-16	16:45:29	1	1	1	USRTblock	1	USRT	56	600000	#ff0000	10pct	1	50pct	50pct	3000	283194	286198	282899	57	286559	361	0	0	54
6.1.1	win	2020-04-16	16:45:29	1	1	1	USRTblock	1	USRT	57	600000	#ff0000	10pct	1	50pct	50pct	3000	286563	289581	286198	57	289855	274	0	0	55
6.1.1	win	2020-04-16	16:45:29	1	1	1	USRTblock	1	USRT	58	600000	#ff0000	10pct	1	50pct	50pct	4000	289859	293864	289581	57	294158	294	0	0	56
6.1.1	win	2020-04-16	16:45:29	1	1	1	USRTblock	1	USRT	59	600000	#ff0000	10pct	1	50pct	50pct	2000	294162	296180	293864	57	296471	291	0	0	57
6.1.1	win	2020-04-16	16:45:29	1	1	1	USRTblock	1	USRT	60	600000	#ff0000	10pct	1	50pct	50pct	7000	296474	303480	296180	57	303739	259	0	0	58
6.1.1	win	2020-04-16	16:45:29	1	1	1	USRTblock	1	USRT	61	600000	#ff0000	10pct	1	50pct	50pct	4000	303743	307763	303480	57	308062	299	0	0	59
6.1.1	win	2020-04-16	16:45:29	1	1	1	USRTblock	1	USRT	62	600000	#ff0000	10pct	1	50pct	50pct	2000	308066	310079	307763	57	310401	322	0	0	60
6.1.1	win	2020-04-16	16:45:29	1	1	1	USRTblock	1	USRT	63	600000	#ff0000	10pct	1	50pct	50pct	5000	310405	315412	310079	57	315680	268	0	0	61
6.1.1	win	2020-04-16	16:45:29	1	1	1	USRTblock	1	USRT	64	600000	#ff0000	10pct	1	50pct	50pct	6000	315684	321696	315412	57	321972	276	0	0	62
6.1.1	win	2020-04-16	16:45:29	1	1	1	USRTblock	1	USRT	65	600000	#ff0000	10pct	1	50pct	50pct	4000	321976	325995	321696	57	326278	283	0	0	63
6.1.1	win	2020-04-16	16:45:29	1	1	1	USRTblock	1	USRT	66	600000	#ff0000	10pct	1	50pct	50pct	5000	326282	331294	325995	57	331610	316	0	0	64
6.1.1	win	2020-04-16	16:45:29	1	1	1	USRTblock	1	USRT	67	600000	#ff0000	10pct	1	50pct	50pct	8000	331614	339627	331294	57	339897	270	0	0	65
6.1.1	win	2020-04-16	16:45:29	1	1	1	USRTblock	1	USRT	68	600000	#ff0000	10pct	1	50pct	50pct	2000	339900	341909	339627	57	342260	351	0	0	66
6.1.1	win	2020-04-16	16:45:29	1	1	1	USRTblock	1	USRT	69	600000	#ff0000	10pct	1	50pct	50pct	5000	342263	347276	341909	57	347664	388	0	0	67
6.1.1	win	2020-04-16	16:45:29	1	1	1	USRTblock	1	USRT	70	600000	#ff0000	10pct	1	50pct	50pct	4000	347668	351675	347276	57	351986	311	0	0	68
6.1.1	win	2020-04-16	16:45:29	1	1	1	USRTblock	1	USRT	71	600000	#ff0000	10pct	1	50pct	50pct	4000	351990	356008	351675	57	356309	301	0	0	69
6.1.1	win	2020-04-16	16:45:29	1	1	1	USRTblock	1	USRT	72	600000	#ff0000	10pct	1	50pct	50pct	4000	356313	360324	356008	57	360635	311	0	0	70
6.1.1	win	2020-04-16	16:45:29	1	1	1	USRTblock	1	USRT	73	600000	#ff0000	10pct	1	50pct	50pct	4000	360639	364657	360324	57	364958	301	0	0	71
6.1.1	win	2020-04-16	16:45:29	1	1	1	USRTblock	1	USRT	74	600000	#ff0000	10pct	1	50pct	50pct	6000	364961	370973	364657	57	371234	261	0	0	72
6.1.1	win	2020-04-16	16:45:29	1	1	1	USRTblock	1	USRT	75	600000	#ff0000	10pct	1	50pct	50pct	3000	371238	374256	370973	57	374598	342	0	0	73
6.1.1	win	2020-04-16	16:45:29	1	1	1	USRTblock	1	USRT	76	600000	#ff0000	10pct	1	50pct	50pct	2000	374602	376623	374256	57	377012	389	0	0	74
6.1.1	win	2020-04-16	16:45:29	1	1	1	USRTblock	1	USRT	77	600000	#ff0000	10pct	1	50pct	50pct	8000	377016	385022	376623	57	385297	275	0	0	75
6.1.1	win	2020-04-16	16:45:29	1	1	1	USRTblock	1	USRT	78	600000	#ff0000	10pct	1	50pct	50pct	6000	385301	391321	385022	57	391655	334	0	0	76
6.1.1	win	2020-04-16	16:45:29	1	1	1	USRTblock	1	USRT	79	600000	#ff0000	10pct	1	50pct	50pct	2000	391659	393671	391321	57	394056	385	0	0	77
6.1.1	win	2020-04-16	16:45:29	1	1	1	USRTblock	1	USRT	80	600000	#ff0000	10pct	1	50pct	50pct	3000	394060	397071	393671	57	397411	340	0	0	78
6.1.1	win	2020-04-16	16:45:29	1	1	1	USRTblock	1	USRT	81	600000	#ff0000	10pct	1	50pct	50pct	5000	397415	402420	397071	57	402676	256	0	0	79
6.1.1	win	2020-04-16	16:45:29	1	1	1	USRTblock	1	USRT	82	600000	#ff0000	10pct	1	50pct	50pct	4000	402680	406686	402420	57	407103	417	0	0	80
6.1.1	win	2020-04-16	16:45:29	1	1	1	USRTblock	1	USRT	83	600000	#ff0000	10pct	1	50pct	50pct	5000	407107	412120	406686	57	412408	288	0	0	81
6.1.1	win	2020-04-16	16:45:29	1	1	1	USRTblock	1	USRT	84	600000	#ff0000	10pct	1	50pct	50pct	8000	412411	420418	412120	57	420711	293	0	0	82
6.1.1	win	2020-04-16	16:45:29	1	1	1	USRTblock	1	USRT	85	600000	#ff0000	10pct	1	50pct	50pct	3000	420715	423735	420418	57	424164	429	0	0	83
6.1.1	win	2020-04-16	16:45:29	1	1	1	USRTblock	1	USRT	86	600000	#ff0000	10pct	1	50pct	50pct	6000	424168	430185	423735	57	430460	275	0	0	84
6.1.1	win	2020-04-16	16:45:29	1	1	1	USRTblock	1	USRT	87	600000	#ff0000	10pct	1	50pct	50pct	8000	430464	438483	430185	57	438763	280	0	0	85
6.1.1	win	2020-04-16	16:45:29	1	1	1	USRTblock	1	USRT	88	600000	#ff0000	10pct	1	50pct	50pct	5000	438766	443783	438483	57	444102	319	0	0	86
6.1.1	win	2020-04-16	16:45:29	1	1	1	USRTblock	1	USRT	89	600000	#ff0000	10pct	1	50pct	50pct	8000	444105	452115	443783	57	452389	274	0	0	87
6.1.1	win	2020-04-16	16:45:29	1	1	1	USRTblock	1	USRT	90	600000	#ff0000	10pct	1	50pct	50pct	8000	452394	460415	452115	57	460675	260	0	0	88
6.1.1	win	2020-04-16	16:45:29	1	1	1	USRTblock	1	USRT	91	600000	#ff0000	10pct	1	50pct	50pct	4000	460679	464697	460415	57	465139	442	0	0	89
6.1.1	win	2020-04-16	16:45:29	1	1	1	USRTblock	1	USRT	92	600000	#ff0000	10pct	1	50pct	50pct	7000	465142	472163	464697	57	472556	393	0	0	90
6.1.1	win	2020-04-16	16:45:29	1	1	1	USRTblock	1	USRT	93	600000	#ff0000	10pct	1	50pct	50pct	2000	472559	474579	472163	57	474928	349	0	0	91
6.1.1	win	2020-04-16	16:45:29	1	1	1	USRTblock	1	USRT	94	600000	#ff0000	10pct	1	50pct	50pct	8000	474932	482946	474579	57	483234	288	0	0	92
6.1.1	win	2020-04-16	16:45:29	1	1	1	USRTblock	1	USRT	95	600000	#ff0000	10pct	1	50pct	50pct	4000	483237	487245	482946	57	487587	342	0	0	93
6.1.1	win	2020-04-16	16:45:29	1	1	1	USRTblock	1	USRT	96	600000	#ff0000	10pct	1	50pct	50pct	2000	487591	489611	487245	57	490231	620	0	0	94
6.1.1	win	2020-04-16	16:45:29	1	1	1	USRTblock	1	USRT	97	600000	#ff0000	10pct	1	50pct	50pct	5000	490234	495244	489611	57	495717	473	0	0	95
6.1.1	win	2020-04-16	16:45:29	1	1	1	USRTblock	1	USRT	98	600000	#ff0000	10pct	1	50pct	50pct	2000	495720	497727	495244	57	498054	327	0	0	96
6.1.1	win	2020-04-16	16:45:29	1	1	1	USRTblock	1	USRT	99	600000	#ff0000	10pct	1	50pct	50pct	8000	498058	506077	497727	57	506417	340	0	0	97
6.1.1	win	2020-04-16	16:45:29	1	1	1	USRTblock	1	USRT	100	600000	#ff0000	10pct	1	50pct	50pct	7000	506421	513426	506077	57	513706	280	0	0	98
6.1.1	win	2020-04-16	16:45:29	1	1	1	USRTblock	1	USRT	101	600000	#ff0000	10pct	1	50pct	50pct	3000	513710	516725	513426	57	517021	296	0	0	99
6.1.1	win	2020-04-16	16:45:29	1	1	1	USRTblock	1	USRT	102	600000	#ff0000	10pct	1	50pct	50pct	6000	517024	523041	516725	57	523347	306	0	0	100
6.1.1	win	2020-04-16	16:45:29	1	1	1	USRTblock	1	USRT	103	600000	#ff0000	10pct	1	50pct	50pct	8000	523351	531357	523041	57	531629	272	0	0	101
6.1.1	win	2020-04-16	16:45:29	1	1	1	USRTblock	1	USRT	104	600000	#ff0000	10pct	1	50pct	50pct	4000	531632	535639	531357	57	535956	317	0	0	102
6.1.1	win	2020-04-16	16:45:29	1	1	1	USRTblock	1	USRT	105	600000	#ff0000	10pct	1	50pct	50pct	5000	535960	540972	535639	57	541281	309	0	0	103
6.1.1	win	2020-04-16	16:45:29	1	1	1	USRTblock	1	USRT	106	600000	#ff0000	10pct	1	50pct	50pct	3000	541284	544289	540972	57	544668	379	0	0	104
6.1.1	win	2020-04-16	16:45:29	1	1	1	USRTblock	1	USRT	107	600000	#ff0000	10pct	1	50pct	50pct	3000	544671	547688	544289	57	548107	419	0	0	105
6.1.1	win	2020-04-16	16:45:29	1	1	1	USRTblock	1	USRT	108	600000	#ff0000	10pct	1	50pct	50pct	4000	548111	552122	547688	57	552474	352	0	0	106
6.1.1	win	2020-04-16	16:45:29	1	1	1	USRTblock	1	USRT	109	600000	#ff0000	10pct	1	50pct	50pct	6000	552477	558488	552122	57	558832	344	0	0	107
6.1.1	win	2020-04-16	16:45:29	1	1	1	USRTblock	1	USRT	110	600000	#ff0000	10pct	1	50pct	50pct	6000	558835	564854	558488	57	565256	402	0	0	108
6.1.1	win	2020-04-16	16:45:29	1	1	1	USRTblock	1	USRT	111	600000	#ff0000	10pct	1	50pct	50pct	6000	565260	571270	564854	57	571598	328	0	0	109
6.1.1	win	2020-04-16	16:45:29	1	1	1	USRTblock	1	USRT	112	600000	#ff0000	10pct	1	50pct	50pct	7000	571601	578619	571270	57	578932	313	0	0	110
6.1.1	win	2020-04-16	16:45:29	1	1	1	USRTblock	1	USRT	113	600000	#ff0000	10pct	1	50pct	50pct	2000	578935	580952	578619	57	581255	303	0	0	111
6.1.1	win	2020-04-16	16:45:29	1	1	1	USRTblock	1	USRT	114	600000	#ff0000	10pct	1	50pct	50pct	4000	581259	585268	580952	57	585593	325	0	0	112
6.1.1	win	2020-04-16	16:45:29	1	1	1	USRTblock	1	USRT	115	600000	#ff0000	10pct	1	50pct	50pct	7000	585597	592601	585268	57	592884	283	0	0	113
6.1.1	win	2020-04-16	16:45:29	1	1	1	USRTblock	1	USRT	116	600000	#ff0000	10pct	1	50pct	50pct	8000	592887	600900	592601	57	601195	295	0	0	114
6.1.1	win	2020-04-16	16:45:29	1	1	1	USRTblock	1	USRT	117	600000	#ff0000	10pct	1	50pct	50pct	7000	601199	-1	600900	0	601304	0	1	1	115
