build	computer.platform	date	time	subject	group	sessionid	blockcode	blocknum	trialcode	trialnum	testduration	targetcolor	targetsize	fixed	targetx	targety	stiminterval	trialStart	shape.targetcircle.timestamp	lastCircleTimestamp	response	rt_elapsed	rt	EarlyResponse	countEarlyResponses	countResponses
6.1.1	win	2020-04-16	07:45:53	1	1	1	USRTblock	1	USRT	3	600000	#ff0000	10pct	1	50pct	50pct	4000	5805	9817	5130	57	10130	313	0	0	1
6.1.1	win	2020-04-16	07:45:53	1	1	1	USRTblock	1	USRT	4	600000	#ff0000	10pct	1	50pct	50pct	2000	10197	12216	9817	57	12488	272	0	0	2
6.1.1	win	2020-04-16	07:45:53	1	1	1	USRTblock	1	USRT	5	600000	#ff0000	10pct	1	50pct	50pct	6000	12491	18498	12216	57	18823	325	0	0	3
6.1.1	win	2020-04-16	07:45:53	1	1	1	USRTblock	1	USRT	6	600000	#ff0000	10pct	1	50pct	50pct	4000	18826	22832	18498	57	23145	313	0	0	4
6.1.1	win	2020-04-16	07:45:53	1	1	1	USRTblock	1	USRT	7	600000	#ff0000	10pct	1	50pct	50pct	2000	23148	25164	22832	57	25581	417	0	0	5
6.1.1	win	2020-04-16	07:45:53	1	1	1	USRTblock	1	USRT	8	600000	#ff0000	10pct	1	50pct	50pct	5000	25585	30597	25164	57	30901	304	0	0	6
6.1.1	win	2020-04-16	07:45:53	1	1	1	USRTblock	1	USRT	9	600000	#ff0000	10pct	1	50pct	50pct	3000	30905	33914	30597	57	34218	304	0	0	7
6.1.1	win	2020-04-16	07:45:53	1	1	1	USRTblock	1	USRT	10	600000	#ff0000	10pct	1	50pct	50pct	4000	34222	38230	33914	57	38558	328	0	0	8
6.1.1	win	2020-04-16	07:45:53	1	1	1	USRTblock	1	USRT	11	600000	#ff0000	10pct	1	50pct	50pct	2000	38562	40579	38230	57	40894	315	0	0	9
6.1.1	win	2020-04-16	07:45:53	1	1	1	USRTblock	1	USRT	12	600000	#ff0000	10pct	1	50pct	50pct	7000	40898	47913	40579	57	48178	265	0	0	10
6.1.1	win	2020-04-16	07:45:53	1	1	1	USRTblock	1	USRT	13	600000	#ff0000	10pct	1	50pct	50pct	2000	48182	50195	47913	57	50791	596	0	0	11
6.1.1	win	2020-04-16	07:45:53	1	1	1	USRTblock	1	USRT	14	600000	#ff0000	10pct	1	50pct	50pct	6000	50795	56812	50195	57	57145	333	0	0	12
6.1.1	win	2020-04-16	07:45:53	1	1	1	USRTblock	1	USRT	15	600000	#ff0000	10pct	1	50pct	50pct	7000	57149	-1	56812	57	61540	0	1	1	13
6.1.1	win	2020-04-16	07:45:53	1	1	1	USRTblock	1	USRT	16	600000	#ff0000	10pct	1	50pct	50pct	3000	61544	64560	-1	57	64906	346	0	1	14
6.1.1	win	2020-04-16	07:45:53	1	1	1	USRTblock	1	USRT	17	600000	#ff0000	10pct	1	50pct	50pct	8000	64910	72927	64560	57	73183	256	0	1	15
6.1.1	win	2020-04-16	07:45:53	1	1	1	USRTblock	1	USRT	18	600000	#ff0000	10pct	1	50pct	50pct	3000	73187	76193	72927	57	76490	297	0	1	16
6.1.1	win	2020-04-16	07:45:53	1	1	1	USRTblock	1	USRT	19	600000	#ff0000	10pct	1	50pct	50pct	6000	76494	82509	76193	57	82845	336	0	1	17
6.1.1	win	2020-04-16	07:45:53	1	1	1	USRTblock	1	USRT	20	600000	#ff0000	10pct	1	50pct	50pct	4000	82849	86858	82509	57	87130	272	0	1	18
6.1.1	win	2020-04-16	07:45:53	1	1	1	USRTblock	1	USRT	21	600000	#ff0000	10pct	1	50pct	50pct	2000	87134	89141	86858	57	89710	569	0	1	19
6.1.1	win	2020-04-16	07:45:53	1	1	1	USRTblock	1	USRT	22	600000	#ff0000	10pct	1	50pct	50pct	6000	89714	-1	89141	57	93253	0	1	2	20
6.1.1	win	2020-04-16	07:45:53	1	1	1	USRTblock	1	USRT	23	600000	#ff0000	10pct	1	50pct	50pct	2000	93257	95274	-1	57	95645	371	0	2	21
6.1.1	win	2020-04-16	07:45:53	1	1	1	USRTblock	1	USRT	24	600000	#ff0000	10pct	1	50pct	50pct	4000	95649	99657	95274	57	100002	345	0	2	22
6.1.1	win	2020-04-16	07:45:53	1	1	1	USRTblock	1	USRT	25	600000	#ff0000	10pct	1	50pct	50pct	2000	100006	102023	99657	57	102362	339	0	2	23
6.1.1	win	2020-04-16	07:45:53	1	1	1	USRTblock	1	USRT	26	600000	#ff0000	10pct	1	50pct	50pct	3000	102366	105373	102023	57	105723	350	0	2	24
6.1.1	win	2020-04-16	07:45:53	1	1	1	USRTblock	1	USRT	27	600000	#ff0000	10pct	1	50pct	50pct	6000	105727	111739	105373	57	112067	328	0	2	25
6.1.1	win	2020-04-16	07:45:53	1	1	1	USRTblock	1	USRT	28	600000	#ff0000	10pct	1	50pct	50pct	5000	112070	117089	111739	57	117428	339	0	2	26
6.1.1	win	2020-04-16	07:45:53	1	1	1	USRTblock	1	USRT	29	600000	#ff0000	10pct	1	50pct	50pct	2000	117431	119438	117089	57	120794	1356	0	2	27
6.1.1	win	2020-04-16	07:45:53	1	1	1	USRTblock	1	USRT	30	600000	#ff0000	10pct	1	50pct	50pct	7000	120798	127805	119438	57	128200	395	0	2	28
6.1.1	win	2020-04-16	07:45:53	1	1	1	USRTblock	1	USRT	31	600000	#ff0000	10pct	1	50pct	50pct	3000	128204	131220	127805	57	131601	381	0	2	29
6.1.1	win	2020-04-16	07:45:53	1	1	1	USRTblock	1	USRT	32	600000	#ff0000	10pct	1	50pct	50pct	5000	131604	136620	131220	57	136932	312	0	2	30
6.1.1	win	2020-04-16	07:45:53	1	1	1	USRTblock	1	USRT	33	600000	#ff0000	10pct	1	50pct	50pct	6000	136935	142953	136620	57	143455	502	0	2	31
6.1.1	win	2020-04-16	07:45:53	1	1	1	USRTblock	1	USRT	34	600000	#ff0000	10pct	1	50pct	50pct	8000	143458	151469	142953	57	151750	281	0	2	32
6.1.1	win	2020-04-16	07:45:53	1	1	1	USRTblock	1	USRT	35	600000	#ff0000	10pct	1	50pct	50pct	4000	151754	155768	151469	57	156141	373	0	2	33
6.1.1	win	2020-04-16	07:45:53	1	1	1	USRTblock	1	USRT	36	600000	#ff0000	10pct	1	50pct	50pct	6000	156144	162151	155768	57	162501	350	0	2	34
6.1.1	win	2020-04-16	07:45:53	1	1	1	USRTblock	1	USRT	37	600000	#ff0000	10pct	1	50pct	50pct	5000	162504	167517	162151	57	168128	611	0	2	35
6.1.1	win	2020-04-16	07:45:53	1	1	1	USRTblock	1	USRT	38	600000	#ff0000	10pct	1	50pct	50pct	6000	168131	174150	167517	57	174499	349	0	2	36
6.1.1	win	2020-04-16	07:45:53	1	1	1	USRTblock	1	USRT	39	600000	#ff0000	10pct	1	50pct	50pct	2000	174503	176515	174150	57	176965	450	0	2	37
6.1.1	win	2020-04-16	07:45:53	1	1	1	USRTblock	1	USRT	40	600000	#ff0000	10pct	1	50pct	50pct	8000	176969	184982	176515	57	185361	379	0	2	38
6.1.1	win	2020-04-16	07:45:53	1	1	1	USRTblock	1	USRT	41	600000	#ff0000	10pct	1	50pct	50pct	6000	185364	191381	184982	57	191796	415	0	2	39
6.1.1	win	2020-04-16	07:45:53	1	1	1	USRTblock	1	USRT	42	600000	#ff0000	10pct	1	50pct	50pct	8000	191799	199814	191381	57	200130	316	0	2	40
6.1.1	win	2020-04-16	07:45:53	1	1	1	USRTblock	1	USRT	43	600000	#ff0000	10pct	1	50pct	50pct	7000	200135	207146	199814	57	207429	283	0	2	41
6.1.1	win	2020-04-16	07:45:53	1	1	1	USRTblock	1	USRT	44	600000	#ff0000	10pct	1	50pct	50pct	8000	207433	215446	207146	57	215780	334	0	2	42
6.1.1	win	2020-04-16	07:45:53	1	1	1	USRTblock	1	USRT	45	600000	#ff0000	10pct	1	50pct	50pct	5000	215783	220795	215446	57	221135	340	0	2	43
6.1.1	win	2020-04-16	07:45:53	1	1	1	USRTblock	1	USRT	46	600000	#ff0000	10pct	1	50pct	50pct	2000	221138	223144	220795	57	223470	326	0	2	44
6.1.1	win	2020-04-16	07:45:53	1	1	1	USRTblock	1	USRT	47	600000	#ff0000	10pct	1	50pct	50pct	2000	223473	225494	223144	57	225886	392	0	2	45
6.1.1	win	2020-04-16	07:45:53	1	1	1	USRTblock	1	USRT	48	600000	#ff0000	10pct	1	50pct	50pct	6000	225890	231894	225494	57	232173	279	0	2	46
6.1.1	win	2020-04-16	07:45:53	1	1	1	USRTblock	1	USRT	49	600000	#ff0000	10pct	1	50pct	50pct	7000	232177	239193	231894	57	239544	351	0	2	47
6.1.1	win	2020-04-16	07:45:53	1	1	1	USRTblock	1	USRT	50	600000	#ff0000	10pct	1	50pct	50pct	5000	239547	244559	239193	57	244888	329	0	2	48
6.1.1	win	2020-04-16	07:45:53	1	1	1	USRTblock	1	USRT	51	600000	#ff0000	10pct	1	50pct	50pct	2000	244892	246909	244559	57	247204	295	0	2	49
6.1.1	win	2020-04-16	07:45:53	1	1	1	USRTblock	1	USRT	52	600000	#ff0000	10pct	1	50pct	50pct	6000	247208	253225	246909	57	253696	471	0	2	50
6.1.1	win	2020-04-16	07:45:53	1	1	1	USRTblock	1	USRT	53	600000	#ff0000	10pct	1	50pct	50pct	8000	253699	261708	253225	57	262213	505	0	2	51
6.1.1	win	2020-04-16	07:45:53	1	1	1	USRTblock	1	USRT	54	600000	#ff0000	10pct	1	50pct	50pct	8000	262216	270223	261708	57	270519	296	0	2	52
6.1.1	win	2020-04-16	07:45:53	1	1	1	USRTblock	1	USRT	55	600000	#ff0000	10pct	1	50pct	50pct	8000	270522	278539	270223	57	278913	374	0	2	53
6.1.1	win	2020-04-16	07:45:53	1	1	1	USRTblock	1	USRT	56	600000	#ff0000	10pct	1	50pct	50pct	6000	278916	284922	278539	57	285263	341	0	2	54
6.1.1	win	2020-04-16	07:45:53	1	1	1	USRTblock	1	USRT	57	600000	#ff0000	10pct	1	50pct	50pct	2000	285266	287271	284922	57	288807	1536	0	2	55
6.1.1	win	2020-04-16	07:45:53	1	1	1	USRTblock	1	USRT	58	600000	#ff0000	10pct	1	50pct	50pct	8000	288810	296821	287271	57	297116	295	0	2	56
6.1.1	win	2020-04-16	07:45:53	1	1	1	USRTblock	1	USRT	59	600000	#ff0000	10pct	1	50pct	50pct	2000	297120	299137	296821	57	299498	361	0	2	57
6.1.1	win	2020-04-16	07:45:53	1	1	1	USRTblock	1	USRT	60	600000	#ff0000	10pct	1	50pct	50pct	2000	299501	301520	299137	57	301848	328	0	2	58
6.1.1	win	2020-04-16	07:45:53	1	1	1	USRTblock	1	USRT	61	600000	#ff0000	10pct	1	50pct	50pct	7000	301851	308870	301520	57	309443	573	0	2	59
6.1.1	win	2020-04-16	07:45:53	1	1	1	USRTblock	1	USRT	62	600000	#ff0000	10pct	1	50pct	50pct	8000	309447	317452	308870	57	317744	292	0	2	60
6.1.1	win	2020-04-16	07:45:53	1	1	1	USRTblock	1	USRT	63	600000	#ff0000	10pct	1	50pct	50pct	4000	317748	321768	317452	57	322045	277	0	2	61
6.1.1	win	2020-04-16	07:45:53	1	1	1	USRTblock	1	USRT	64	600000	#ff0000	10pct	1	50pct	50pct	5000	322048	327068	321768	57	327356	288	0	2	62
6.1.1	win	2020-04-16	07:45:53	1	1	1	USRTblock	1	USRT	65	600000	#ff0000	10pct	1	50pct	50pct	5000	327359	332367	327068	57	332676	309	0	2	63
6.1.1	win	2020-04-16	07:45:53	1	1	1	USRTblock	1	USRT	66	600000	#ff0000	10pct	1	50pct	50pct	4000	332679	336700	332367	57	337090	390	0	2	64
6.1.1	win	2020-04-16	07:45:53	1	1	1	USRTblock	1	USRT	67	600000	#ff0000	10pct	1	50pct	50pct	7000	337093	344099	336700	57	344390	291	0	2	65
6.1.1	win	2020-04-16	07:45:53	1	1	1	USRTblock	1	USRT	68	600000	#ff0000	10pct	1	50pct	50pct	3000	344394	347399	344099	57	347850	451	0	2	66
6.1.1	win	2020-04-16	07:45:53	1	1	1	USRTblock	1	USRT	69	600000	#ff0000	10pct	1	50pct	50pct	5000	347854	352866	347399	57	353149	283	0	2	67
6.1.1	win	2020-04-16	07:45:53	1	1	1	USRTblock	1	USRT	70	600000	#ff0000	10pct	1	50pct	50pct	8000	353152	361165	352866	57	361487	322	0	2	68
6.1.1	win	2020-04-16	07:45:53	1	1	1	USRTblock	1	USRT	71	600000	#ff0000	10pct	1	50pct	50pct	6000	361491	367498	361165	57	367805	307	0	2	69
6.1.1	win	2020-04-16	07:45:53	1	1	1	USRTblock	1	USRT	72	600000	#ff0000	10pct	1	50pct	50pct	6000	367808	373813	367498	57	374214	401	0	2	70
6.1.1	win	2020-04-16	07:45:53	1	1	1	USRTblock	1	USRT	73	600000	#ff0000	10pct	1	50pct	50pct	7000	374218	381229	373813	57	381575	346	0	2	71
6.1.1	win	2020-04-16	07:45:53	1	1	1	USRTblock	1	USRT	74	600000	#ff0000	10pct	1	50pct	50pct	6000	381578	387596	381229	57	387965	369	0	2	72
6.1.1	win	2020-04-16	07:45:53	1	1	1	USRTblock	1	USRT	75	600000	#ff0000	10pct	1	50pct	50pct	2000	387969	389978	387596	57	390743	765	0	2	73
6.1.1	win	2020-04-16	07:45:53	1	1	1	USRTblock	1	USRT	76	600000	#ff0000	10pct	1	50pct	50pct	3000	390747	393761	389978	57	394122	361	0	2	74
6.1.1	win	2020-04-16	07:45:53	1	1	1	USRTblock	1	USRT	77	600000	#ff0000	10pct	1	50pct	50pct	6000	394126	400144	393761	57	400432	288	0	2	75
6.1.1	win	2020-04-16	07:45:53	1	1	1	USRTblock	1	USRT	78	600000	#ff0000	10pct	1	50pct	50pct	8000	400436	408443	400144	57	408704	261	0	2	76
6.1.1	win	2020-04-16	07:45:53	1	1	1	USRTblock	1	USRT	79	600000	#ff0000	10pct	1	50pct	50pct	6000	408708	414725	408443	57	415449	724	0	2	77
6.1.1	win	2020-04-16	07:45:53	1	1	1	USRTblock	1	USRT	80	600000	#ff0000	10pct	1	50pct	50pct	8000	415453	423458	414725	57	423721	263	0	2	78
6.1.1	win	2020-04-16	07:45:53	1	1	1	USRTblock	1	USRT	81	600000	#ff0000	10pct	1	50pct	50pct	8000	423725	431741	423458	57	432110	369	0	2	79
6.1.1	win	2020-04-16	07:45:53	1	1	1	USRTblock	1	USRT	82	600000	#ff0000	10pct	1	50pct	50pct	6000	432113	438124	431741	57	438610	486	0	2	80
6.1.1	win	2020-04-16	07:45:53	1	1	1	USRTblock	1	USRT	83	600000	#ff0000	10pct	1	50pct	50pct	8000	438614	446623	438124	57	446970	347	0	2	81
6.1.1	win	2020-04-16	07:45:53	1	1	1	USRTblock	1	USRT	84	600000	#ff0000	10pct	1	50pct	50pct	4000	446974	450989	446623	57	451380	391	0	2	82
6.1.1	win	2020-04-16	07:45:53	1	1	1	USRTblock	1	USRT	85	600000	#ff0000	10pct	1	50pct	50pct	5000	451383	456388	450989	57	457291	903	0	2	83
6.1.1	win	2020-04-16	07:45:53	1	1	1	USRTblock	1	USRT	86	600000	#ff0000	10pct	1	50pct	50pct	6000	457295	463305	456388	57	465658	2353	0	2	84
6.1.1	win	2020-04-16	07:45:53	1	1	1	USRTblock	1	USRT	87	600000	#ff0000	10pct	1	50pct	50pct	5000	465662	470670	463305	57	471081	411	0	2	85
6.1.1	win	2020-04-16	07:45:53	1	1	1	USRTblock	1	USRT	88	600000	#ff0000	10pct	1	50pct	50pct	4000	471085	475103	470670	57	475437	334	0	2	86
6.1.1	win	2020-04-16	07:45:53	1	1	1	USRTblock	1	USRT	89	600000	#ff0000	10pct	1	50pct	50pct	7000	475440	482452	475103	57	483062	610	0	2	87
6.1.1	win	2020-04-16	07:45:53	1	1	1	USRTblock	1	USRT	90	600000	#ff0000	10pct	1	50pct	50pct	2000	483066	485085	482452	57	485462	377	0	2	88
6.1.1	win	2020-04-16	07:45:53	1	1	1	USRTblock	1	USRT	91	600000	#ff0000	10pct	1	50pct	50pct	7000	485466	-1	485085	57	487004	0	1	3	89
6.1.1	win	2020-04-16	07:45:53	1	1	1	USRTblock	1	USRT	92	600000	#ff0000	10pct	1	50pct	50pct	2000	487009	489018	-1	57	489342	324	0	3	90
6.1.1	win	2020-04-16	07:45:53	1	1	1	USRTblock	1	USRT	93	600000	#ff0000	10pct	1	50pct	50pct	3000	489345	492351	489018	57	492689	338	0	3	91
6.1.1	win	2020-04-16	07:45:53	1	1	1	USRTblock	1	USRT	94	600000	#ff0000	10pct	1	50pct	50pct	3000	492693	495701	492351	57	496013	312	0	3	92
6.1.1	win	2020-04-16	07:45:53	1	1	1	USRTblock	1	USRT	95	600000	#ff0000	10pct	1	50pct	50pct	5000	496016	501034	495701	57	501366	332	0	3	93
6.1.1	win	2020-04-16	07:45:53	1	1	1	USRTblock	1	USRT	96	600000	#ff0000	10pct	1	50pct	50pct	5000	501370	506383	501034	57	506689	306	0	3	94
6.1.1	win	2020-04-16	07:45:53	1	1	1	USRTblock	1	USRT	97	600000	#ff0000	10pct	1	50pct	50pct	8000	506692	514699	506383	57	515010	311	0	3	95
6.1.1	win	2020-04-16	07:45:53	1	1	1	USRTblock	1	USRT	98	600000	#ff0000	10pct	1	50pct	50pct	7000	515014	522032	514699	57	522335	303	0	3	96
6.1.1	win	2020-04-16	07:45:53	1	1	1	USRTblock	1	USRT	99	600000	#ff0000	10pct	1	50pct	50pct	6000	522338	528348	522032	57	528713	365	0	3	97
6.1.1	win	2020-04-16	07:45:53	1	1	1	USRTblock	1	USRT	100	600000	#ff0000	10pct	1	50pct	50pct	7000	528716	535731	528348	57	536037	306	0	3	98
6.1.1	win	2020-04-16	07:45:53	1	1	1	USRTblock	1	USRT	101	600000	#ff0000	10pct	1	50pct	50pct	4000	536040	540046	535731	57	540385	339	0	3	99
6.1.1	win	2020-04-16	07:45:53	1	1	1	USRTblock	1	USRT	102	600000	#ff0000	10pct	1	50pct	50pct	5000	540388	545396	540046	57	545683	287	0	3	100
6.1.1	win	2020-04-16	07:45:53	1	1	1	USRTblock	1	USRT	103	600000	#ff0000	10pct	1	50pct	50pct	7000	545687	552695	545396	57	552970	275	0	3	101
6.1.1	win	2020-04-16	07:45:53	1	1	1	USRTblock	1	USRT	104	600000	#ff0000	10pct	1	50pct	50pct	7000	552974	559995	552695	57	560332	337	0	3	102
6.1.1	win	2020-04-16	07:45:53	1	1	1	USRTblock	1	USRT	105	600000	#ff0000	10pct	1	50pct	50pct	5000	560336	565343	559995	57	565749	406	0	3	103
6.1.1	win	2020-04-16	07:45:53	1	1	1	USRTblock	1	USRT	106	600000	#ff0000	10pct	1	50pct	50pct	8000	565753	573760	565343	57	574069	309	0	3	104
6.1.1	win	2020-04-16	07:45:53	1	1	1	USRTblock	1	USRT	107	600000	#ff0000	10pct	1	50pct	50pct	8000	574072	582092	573760	57	582404	312	0	3	105
6.1.1	win	2020-04-16	07:45:53	1	1	1	USRTblock	1	USRT	108	600000	#ff0000	10pct	1	50pct	50pct	8000	582408	590425	582092	57	590800	375	0	3	106
6.1.1	win	2020-04-16	07:45:53	1	1	1	USRTblock	1	USRT	109	600000	#ff0000	10pct	1	50pct	50pct	4000	590804	594824	590425	57	595181	357	0	3	107
6.1.1	win	2020-04-16	07:45:53	1	1	1	USRTblock	1	USRT	110	600000	#ff0000	10pct	1	50pct	50pct	3000	595185	598190	594824	57	598662	472	0	3	108
6.1.1	win	2020-04-16	07:45:53	1	1	1	USRTblock	1	USRT	111	600000	#ff0000	10pct	1	50pct	50pct	4000	598666	602673	598190	57	602987	314	0	3	109
6.1.1	win	2020-04-16	07:45:53	1	1	1	USRTblock	1	USRT	112	600000	#ff0000	10pct	1	50pct	50pct	8000	602991	-1	602673	0	603169	0	1	4	110
