build	computer.platform	date	time	subject	group	sessionid	blockcode	blocknum	trialcode	trialnum	testduration	targetcolor	targetsize	fixed	targetx	targety	stiminterval	trialStart	shape.targetcircle.timestamp	lastCircleTimestamp	response	rt_elapsed	rt	EarlyResponse	countEarlyResponses	countResponses
6.1.1	win	2020-04-16	22:06:09	1	1	1	USRTblock	1	USRT	3	600000	#ff0000	10pct	1	50pct	50pct	7000	3620	10642	2838	57	10895	253	0	0	1
6.1.1	win	2020-04-16	22:06:09	1	1	1	USRTblock	1	USRT	4	600000	#ff0000	10pct	1	50pct	50pct	2000	10917	12924	10642	57	13264	340	0	0	2
6.1.1	win	2020-04-16	22:06:09	1	1	1	USRTblock	1	USRT	5	600000	#ff0000	10pct	1	50pct	50pct	8000	13268	21275	12924	57	21507	232	0	0	3
6.1.1	win	2020-04-16	22:06:09	1	1	1	USRTblock	1	USRT	6	600000	#ff0000	10pct	1	50pct	50pct	8000	21530	29540	21275	57	29806	266	0	0	4
6.1.1	win	2020-04-16	22:06:09	1	1	1	USRTblock	1	USRT	7	600000	#ff0000	10pct	1	50pct	50pct	4000	29811	33823	29540	57	34149	326	0	0	5
6.1.1	win	2020-04-16	22:06:09	1	1	1	USRTblock	1	USRT	8	600000	#ff0000	10pct	1	50pct	50pct	8000	34154	42173	33823	57	42441	268	0	0	6
6.1.1	win	2020-04-16	22:06:09	1	1	1	USRTblock	1	USRT	9	600000	#ff0000	10pct	1	50pct	50pct	3000	42445	45455	42173	57	45876	421	0	0	7
6.1.1	win	2020-04-16	22:06:09	1	1	1	USRTblock	1	USRT	10	600000	#ff0000	10pct	1	50pct	50pct	8000	45880	53888	45455	57	54210	322	0	0	8
6.1.1	win	2020-04-16	22:06:09	1	1	1	USRTblock	1	USRT	11	600000	#ff0000	10pct	1	50pct	50pct	7000	54215	61220	53888	57	61462	242	0	0	9
6.1.1	win	2020-04-16	22:06:09	1	1	1	USRTblock	1	USRT	12	600000	#ff0000	10pct	1	50pct	50pct	8000	61467	69486	61220	57	69775	289	0	0	10
6.1.1	win	2020-04-16	22:06:09	1	1	1	USRTblock	1	USRT	13	600000	#ff0000	10pct	1	50pct	50pct	2000	69779	71786	69486	57	72132	346	0	0	11
6.1.1	win	2020-04-16	22:06:09	1	1	1	USRTblock	1	USRT	14	600000	#ff0000	10pct	1	50pct	50pct	2000	72136	74152	71786	57	74518	366	0	0	12
6.1.1	win	2020-04-16	22:06:09	1	1	1	USRTblock	1	USRT	15	600000	#ff0000	10pct	1	50pct	50pct	6000	74524	80535	74152	57	80853	318	0	0	13
6.1.1	win	2020-04-16	22:06:09	1	1	1	USRTblock	1	USRT	16	600000	#ff0000	10pct	1	50pct	50pct	8000	80858	88868	80535	57	89147	279	0	0	14
6.1.1	win	2020-04-16	22:06:09	1	1	1	USRTblock	1	USRT	17	600000	#ff0000	10pct	1	50pct	50pct	8000	89153	97167	88868	57	97436	269	0	0	15
6.1.1	win	2020-04-16	22:06:09	1	1	1	USRTblock	1	USRT	18	600000	#ff0000	10pct	1	50pct	50pct	3000	97441	100449	97167	57	100799	350	0	0	16
6.1.1	win	2020-04-16	22:06:09	1	1	1	USRTblock	1	USRT	19	600000	#ff0000	10pct	1	50pct	50pct	5000	100804	105816	100449	57	106103	287	0	0	17
6.1.1	win	2020-04-16	22:06:09	1	1	1	USRTblock	1	USRT	20	600000	#ff0000	10pct	1	50pct	50pct	5000	106107	111115	105816	57	111427	312	0	0	18
6.1.1	win	2020-04-16	22:06:09	1	1	1	USRTblock	1	USRT	21	600000	#ff0000	10pct	1	50pct	50pct	3000	111431	114448	111115	57	114854	406	0	0	19
6.1.1	win	2020-04-16	22:06:09	1	1	1	USRTblock	1	USRT	22	600000	#ff0000	10pct	1	50pct	50pct	4000	114859	118863	114448	57	119150	287	0	0	20
6.1.1	win	2020-04-16	22:06:09	1	1	1	USRTblock	1	USRT	23	600000	#ff0000	10pct	1	50pct	50pct	5000	119155	124164	118863	57	124427	263	0	0	21
6.1.1	win	2020-04-16	22:06:09	1	1	1	USRTblock	1	USRT	24	600000	#ff0000	10pct	1	50pct	50pct	5000	124431	129447	124164	57	129690	243	0	0	22
6.1.1	win	2020-04-16	22:06:09	1	1	1	USRTblock	1	USRT	25	600000	#ff0000	10pct	1	50pct	50pct	7000	129694	136713	129447	57	137057	344	0	0	23
6.1.1	win	2020-04-16	22:06:09	1	1	1	USRTblock	1	USRT	26	600000	#ff0000	10pct	1	50pct	50pct	6000	137061	143079	136713	57	143332	253	0	0	24
6.1.1	win	2020-04-16	22:06:09	1	1	1	USRTblock	1	USRT	27	600000	#ff0000	10pct	1	50pct	50pct	6000	143336	149345	143079	57	149632	287	0	0	25
6.1.1	win	2020-04-16	22:06:09	1	1	1	USRTblock	1	USRT	28	600000	#ff0000	10pct	1	50pct	50pct	5000	149636	154644	149345	57	154992	348	0	0	26
6.1.1	win	2020-04-16	22:06:09	1	1	1	USRTblock	1	USRT	29	600000	#ff0000	10pct	1	50pct	50pct	4000	154997	159011	154644	57	159371	360	0	0	27
6.1.1	win	2020-04-16	22:06:09	1	1	1	USRTblock	1	USRT	30	600000	#ff0000	10pct	1	50pct	50pct	6000	159376	165393	159011	57	165682	289	0	0	28
6.1.1	win	2020-04-16	22:06:09	1	1	1	USRTblock	1	USRT	31	600000	#ff0000	10pct	1	50pct	50pct	2000	165687	167692	165393	57	168051	359	0	0	29
6.1.1	win	2020-04-16	22:06:09	1	1	1	USRTblock	1	USRT	32	600000	#ff0000	10pct	1	50pct	50pct	4000	168055	172077	167692	57	172425	348	0	0	30
6.1.1	win	2020-04-16	22:06:09	1	1	1	USRTblock	1	USRT	33	600000	#ff0000	10pct	1	50pct	50pct	2000	172429	174442	172077	57	174863	421	0	0	31
6.1.1	win	2020-04-16	22:06:09	1	1	1	USRTblock	1	USRT	34	600000	#ff0000	10pct	1	50pct	50pct	5000	174867	179875	174442	57	180175	300	0	0	32
6.1.1	win	2020-04-16	22:06:09	1	1	1	USRTblock	1	USRT	35	600000	#ff0000	10pct	1	50pct	50pct	5000	180180	185191	179875	57	185459	268	0	0	33
6.1.1	win	2020-04-16	22:06:09	1	1	1	USRTblock	1	USRT	36	600000	#ff0000	10pct	1	50pct	50pct	2000	185464	187474	185191	57	187776	302	0	0	34
6.1.1	win	2020-04-16	22:06:09	1	1	1	USRTblock	1	USRT	37	600000	#ff0000	10pct	1	50pct	50pct	5000	187780	192790	187474	57	193135	345	0	0	35
6.1.1	win	2020-04-16	22:06:09	1	1	1	USRTblock	1	USRT	38	600000	#ff0000	10pct	1	50pct	50pct	5000	193139	198157	192790	57	198415	258	0	0	36
6.1.1	win	2020-04-16	22:06:09	1	1	1	USRTblock	1	USRT	39	600000	#ff0000	10pct	1	50pct	50pct	8000	198419	206439	198157	57	206765	326	0	0	37
6.1.1	win	2020-04-16	22:06:09	1	1	1	USRTblock	1	USRT	40	600000	#ff0000	10pct	1	50pct	50pct	8000	206769	214788	206439	57	215118	330	0	0	38
6.1.1	win	2020-04-16	22:06:09	1	1	1	USRTblock	1	USRT	41	600000	#ff0000	10pct	1	50pct	50pct	6000	215123	221137	214788	57	221424	287	0	0	39
6.1.1	win	2020-04-16	22:06:09	1	1	1	USRTblock	1	USRT	42	600000	#ff0000	10pct	1	50pct	50pct	4000	221428	225436	221137	57	225908	472	0	0	40
6.1.1	win	2020-04-16	22:06:09	1	1	1	USRTblock	1	USRT	43	600000	#ff0000	10pct	1	50pct	50pct	8000	225912	233920	225436	57	234193	273	0	0	41
6.1.1	win	2020-04-16	22:06:09	1	1	1	USRTblock	1	USRT	44	600000	#ff0000	10pct	1	50pct	50pct	6000	234197	240219	233920	57	240568	349	0	0	42
6.1.1	win	2020-04-16	22:06:09	1	1	1	USRTblock	1	USRT	45	600000	#ff0000	10pct	1	50pct	50pct	3000	240572	243585	240219	57	243869	284	0	0	43
6.1.1	win	2020-04-16	22:06:09	1	1	1	USRTblock	1	USRT	46	600000	#ff0000	10pct	1	50pct	50pct	3000	243874	246885	243585	57	247194	309	0	0	44
6.1.1	win	2020-04-16	22:06:09	1	1	1	USRTblock	1	USRT	47	600000	#ff0000	10pct	1	50pct	50pct	8000	247198	255218	246885	57	255463	245	0	0	45
6.1.1	win	2020-04-16	22:06:09	1	1	1	USRTblock	1	USRT	48	600000	#ff0000	10pct	1	50pct	50pct	8000	255467	263484	255218	57	263799	315	0	0	46
6.1.1	win	2020-04-16	22:06:09	1	1	1	USRTblock	1	USRT	49	600000	#ff0000	10pct	1	50pct	50pct	2000	263803	265816	263484	57	266151	335	0	0	47
6.1.1	win	2020-04-16	22:06:09	1	1	1	USRTblock	1	USRT	50	600000	#ff0000	10pct	1	50pct	50pct	8000	266155	274166	265816	57	274614	448	0	0	48
6.1.1	win	2020-04-16	22:06:09	1	1	1	USRTblock	1	USRT	51	600000	#ff0000	10pct	1	50pct	50pct	8000	274618	282632	274166	57	282903	271	0	0	49
6.1.1	win	2020-04-16	22:06:09	1	1	1	USRTblock	1	USRT	52	600000	#ff0000	10pct	1	50pct	50pct	3000	282907	-1	282632	57	282945	0	1	1	50
6.1.1	win	2020-04-16	22:06:09	1	1	1	USRTblock	1	USRT	53	600000	#ff0000	10pct	1	50pct	50pct	5000	282962	287981	-1	57	288418	437	0	1	51
6.1.1	win	2020-04-16	22:06:09	1	1	1	USRTblock	1	USRT	54	600000	#ff0000	10pct	1	50pct	50pct	5000	288422	293430	287981	57	293864	434	0	1	52
6.1.1	win	2020-04-16	22:06:09	1	1	1	USRTblock	1	USRT	55	600000	#ff0000	10pct	1	50pct	50pct	5000	293868	298880	293430	57	299157	277	0	1	53
6.1.1	win	2020-04-16	22:06:09	1	1	1	USRTblock	1	USRT	56	600000	#ff0000	10pct	1	50pct	50pct	4000	299163	303179	298880	57	303464	285	0	1	54
6.1.1	win	2020-04-16	22:06:09	1	1	1	USRTblock	1	USRT	57	600000	#ff0000	10pct	1	50pct	50pct	2000	303468	305479	303179	57	305800	321	0	1	55
6.1.1	win	2020-04-16	22:06:09	1	1	1	USRTblock	1	USRT	58	600000	#ff0000	10pct	1	50pct	50pct	6000	305805	311812	305479	57	312118	306	0	1	56
6.1.1	win	2020-04-16	22:06:09	1	1	1	USRTblock	1	USRT	59	600000	#ff0000	10pct	1	50pct	50pct	3000	312122	315145	311812	57	315471	326	0	1	57
6.1.1	win	2020-04-16	22:06:09	1	1	1	USRTblock	1	USRT	60	600000	#ff0000	10pct	1	50pct	50pct	8000	315476	323494	315145	57	323802	308	0	1	58
6.1.1	win	2020-04-16	22:06:09	1	1	1	USRTblock	1	USRT	61	600000	#ff0000	10pct	1	50pct	50pct	4000	323806	327827	323494	57	328265	438	0	1	59
6.1.1	win	2020-04-16	22:06:09	1	1	1	USRTblock	1	USRT	62	600000	#ff0000	10pct	1	50pct	50pct	5000	328269	333276	327827	57	333650	374	0	1	60
6.1.1	win	2020-04-16	22:06:09	1	1	1	USRTblock	1	USRT	63	600000	#ff0000	10pct	1	50pct	50pct	7000	333654	340676	333276	57	340995	319	0	1	61
6.1.1	win	2020-04-16	22:06:09	1	1	1	USRTblock	1	USRT	64	600000	#ff0000	10pct	1	50pct	50pct	7000	341000	348008	340676	57	348405	397	0	1	62
6.1.1	win	2020-04-16	22:06:09	1	1	1	USRTblock	1	USRT	65	600000	#ff0000	10pct	1	50pct	50pct	5000	348410	353424	348008	57	353833	409	0	1	63
6.1.1	win	2020-04-16	22:06:09	1	1	1	USRTblock	1	USRT	66	600000	#ff0000	10pct	1	50pct	50pct	7000	353839	360857	353424	57	361260	403	0	1	64
6.1.1	win	2020-04-16	22:06:09	1	1	1	USRTblock	1	USRT	67	600000	#ff0000	10pct	1	50pct	50pct	8000	361265	369273	360857	57	369702	429	0	1	65
6.1.1	win	2020-04-16	22:06:09	1	1	1	USRTblock	1	USRT	68	600000	#ff0000	10pct	1	50pct	50pct	7000	369706	376722	369273	57	376986	264	0	1	66
6.1.1	win	2020-04-16	22:06:09	1	1	1	USRTblock	1	USRT	69	600000	#ff0000	10pct	1	50pct	50pct	7000	376990	384004	376722	57	384326	322	0	1	67
6.1.1	win	2020-04-16	22:06:09	1	1	1	USRTblock	1	USRT	70	600000	#ff0000	10pct	1	50pct	50pct	6000	384330	390338	384004	57	390677	339	0	1	68
6.1.1	win	2020-04-16	22:06:09	1	1	1	USRTblock	1	USRT	71	600000	#ff0000	10pct	1	50pct	50pct	5000	390682	395703	390338	57	395997	294	0	1	69
6.1.1	win	2020-04-16	22:06:09	1	1	1	USRTblock	1	USRT	72	600000	#ff0000	10pct	1	50pct	50pct	2000	396003	398019	395703	57	398360	341	0	1	70
6.1.1	win	2020-04-16	22:06:09	1	1	1	USRTblock	1	USRT	73	600000	#ff0000	10pct	1	50pct	50pct	5000	398364	403369	398019	57	403638	269	0	1	71
6.1.1	win	2020-04-16	22:06:09	1	1	1	USRTblock	1	USRT	74	600000	#ff0000	10pct	1	50pct	50pct	7000	403643	410652	403369	57	410994	342	0	1	72
6.1.1	win	2020-04-16	22:06:09	1	1	1	USRTblock	1	USRT	75	600000	#ff0000	10pct	1	50pct	50pct	3000	410998	414018	410652	57	414388	370	0	1	73
6.1.1	win	2020-04-16	22:06:09	1	1	1	USRTblock	1	USRT	76	600000	#ff0000	10pct	1	50pct	50pct	4000	414392	418401	414018	57	418760	359	0	1	74
6.1.1	win	2020-04-16	22:06:09	1	1	1	USRTblock	1	USRT	77	600000	#ff0000	10pct	1	50pct	50pct	7000	418764	425784	418401	57	426067	283	0	1	75
6.1.1	win	2020-04-16	22:06:09	1	1	1	USRTblock	1	USRT	78	600000	#ff0000	10pct	1	50pct	50pct	7000	426072	433083	425784	57	433338	255	0	1	76
6.1.1	win	2020-04-16	22:06:09	1	1	1	USRTblock	1	USRT	79	600000	#ff0000	10pct	1	50pct	50pct	2000	433343	435349	433083	57	436221	872	0	1	77
6.1.1	win	2020-04-16	22:06:09	1	1	1	USRTblock	1	USRT	80	600000	#ff0000	10pct	1	50pct	50pct	5000	436226	441233	435349	57	441535	302	0	1	78
6.1.1	win	2020-04-16	22:06:09	1	1	1	USRTblock	1	USRT	81	600000	#ff0000	10pct	1	50pct	50pct	7000	441539	448548	441233	57	448835	287	0	1	79
6.1.1	win	2020-04-16	22:06:09	1	1	1	USRTblock	1	USRT	82	600000	#ff0000	10pct	1	50pct	50pct	3000	448840	451848	448548	57	452240	392	0	1	80
6.1.1	win	2020-04-16	22:06:09	1	1	1	USRTblock	1	USRT	83	600000	#ff0000	10pct	1	50pct	50pct	5000	452245	457264	451848	57	457570	306	0	1	81
6.1.1	win	2020-04-16	22:06:09	1	1	1	USRTblock	1	USRT	84	600000	#ff0000	10pct	1	50pct	50pct	5000	457574	462596	457264	57	462871	275	0	1	82
6.1.1	win	2020-04-16	22:06:09	1	1	1	USRTblock	1	USRT	85	600000	#ff0000	10pct	1	50pct	50pct	5000	462876	467896	462596	57	468220	324	0	1	83
6.1.1	win	2020-04-16	22:06:09	1	1	1	USRTblock	1	USRT	86	600000	#ff0000	10pct	1	50pct	50pct	2000	468225	470246	467896	57	470733	487	0	1	84
6.1.1	win	2020-04-16	22:06:09	1	1	1	USRTblock	1	USRT	87	600000	#ff0000	10pct	1	50pct	50pct	7000	470737	477745	470246	57	478154	409	0	1	85
6.1.1	win	2020-04-16	22:06:09	1	1	1	USRTblock	1	USRT	88	600000	#ff0000	10pct	1	50pct	50pct	8000	478158	486178	477745	57	486456	278	0	1	86
6.1.1	win	2020-04-16	22:06:09	1	1	1	USRTblock	1	USRT	89	600000	#ff0000	10pct	1	50pct	50pct	3000	486461	489478	486178	57	489844	366	0	1	87
6.1.1	win	2020-04-16	22:06:09	1	1	1	USRTblock	1	USRT	90	600000	#ff0000	10pct	1	50pct	50pct	5000	489848	494860	489478	57	495203	343	0	1	88
6.1.1	win	2020-04-16	22:06:09	1	1	1	USRTblock	1	USRT	91	600000	#ff0000	10pct	1	50pct	50pct	2000	495207	497226	494860	57	497570	344	0	1	89
6.1.1	win	2020-04-16	22:06:09	1	1	1	USRTblock	1	USRT	92	600000	#ff0000	10pct	1	50pct	50pct	5000	497575	502592	497226	57	502905	313	0	1	90
6.1.1	win	2020-04-16	22:06:09	1	1	1	USRTblock	1	USRT	93	600000	#ff0000	10pct	1	50pct	50pct	5000	502909	507925	502592	57	508208	283	0	1	91
6.1.1	win	2020-04-16	22:06:09	1	1	1	USRTblock	1	USRT	94	600000	#ff0000	10pct	1	50pct	50pct	7000	508212	515225	507925	57	515512	287	0	1	92
6.1.1	win	2020-04-16	22:06:09	1	1	1	USRTblock	1	USRT	95	600000	#ff0000	10pct	1	50pct	50pct	7000	515517	522524	515225	57	522808	284	0	1	93
6.1.1	win	2020-04-16	22:06:09	1	1	1	USRTblock	1	USRT	96	600000	#ff0000	10pct	1	50pct	50pct	2000	522813	524823	522524	57	525212	389	0	1	94
6.1.1	win	2020-04-16	22:06:09	1	1	1	USRTblock	1	USRT	97	600000	#ff0000	10pct	1	50pct	50pct	3000	525216	528223	524823	57	528800	577	0	1	95
6.1.1	win	2020-04-16	22:06:09	1	1	1	USRTblock	1	USRT	98	600000	#ff0000	10pct	1	50pct	50pct	8000	528805	536822	528223	57	537141	319	0	1	96
6.1.1	win	2020-04-16	22:06:09	1	1	1	USRTblock	1	USRT	99	600000	#ff0000	10pct	1	50pct	50pct	2000	537145	539155	536822	57	540155	1000	0	1	97
6.1.1	win	2020-04-16	22:06:09	1	1	1	USRTblock	1	USRT	100	600000	#ff0000	10pct	1	50pct	50pct	2000	540159	542172	539155	57	542440	268	0	1	98
6.1.1	win	2020-04-16	22:06:09	1	1	1	USRTblock	1	USRT	101	600000	#ff0000	10pct	1	50pct	50pct	4000	542445	546454	542172	57	546708	254	0	1	99
6.1.1	win	2020-04-16	22:06:09	1	1	1	USRTblock	1	USRT	102	600000	#ff0000	10pct	1	50pct	50pct	4000	546713	550721	546454	57	551040	319	0	1	100
6.1.1	win	2020-04-16	22:06:09	1	1	1	USRTblock	1	USRT	103	600000	#ff0000	10pct	1	50pct	50pct	5000	551044	556054	550721	57	556295	241	0	1	101
6.1.1	win	2020-04-16	22:06:09	1	1	1	USRTblock	1	USRT	104	600000	#ff0000	10pct	1	50pct	50pct	6000	556299	562320	556054	57	562586	266	0	1	102
6.1.1	win	2020-04-16	22:06:09	1	1	1	USRTblock	1	USRT	105	600000	#ff0000	10pct	1	50pct	50pct	7000	562590	569603	562320	57	569920	317	0	1	103
6.1.1	win	2020-04-16	22:06:09	1	1	1	USRTblock	1	USRT	106	600000	#ff0000	10pct	1	50pct	50pct	7000	569925	576935	569603	57	577233	298	0	1	104
6.1.1	win	2020-04-16	22:06:09	1	1	1	USRTblock	1	USRT	107	600000	#ff0000	10pct	1	50pct	50pct	8000	577238	585251	576935	57	585520	269	0	1	105
6.1.1	win	2020-04-16	22:06:09	1	1	1	USRTblock	1	USRT	108	600000	#ff0000	10pct	1	50pct	50pct	7000	585524	592534	585251	57	592805	271	0	1	106
6.1.1	win	2020-04-16	22:06:09	1	1	1	USRTblock	1	USRT	109	600000	#ff0000	10pct	1	50pct	50pct	8000	592809	600816	592534	57	601073	257	0	1	107
6.1.1	win	2020-04-16	22:06:09	1	1	1	USRTblock	1	USRT	110	600000	#ff0000	10pct	1	50pct	50pct	3000	601078	-1	600816	0	601200	0	1	2	108
