build	computer.platform	date	time	subject	group	sessionid	blockcode	blocknum	trialcode	trialnum	testduration	targetcolor	targetsize	fixed	targetx	targety	stiminterval	trialStart	shape.targetcircle.timestamp	lastCircleTimestamp	response	rt_elapsed	rt	EarlyResponse	countEarlyResponses	countResponses
6.1.1	win	2020-04-15	19:30:00	1	1	1	USRTblock	1	USRT	3	600000	#ff0000	10pct	1	50pct	50pct	3000	4929	7938	4202	57	8235	297	0	0	1
6.1.1	win	2020-04-15	19:30:00	1	1	1	USRTblock	1	USRT	4	600000	#ff0000	10pct	1	50pct	50pct	2000	8248	10254	7938	57	10590	336	0	0	2
6.1.1	win	2020-04-15	19:30:00	1	1	1	USRTblock	1	USRT	5	600000	#ff0000	10pct	1	50pct	50pct	5000	10593	15604	10254	57	15908	304	0	0	3
6.1.1	win	2020-04-15	19:30:00	1	1	1	USRTblock	1	USRT	6	600000	#ff0000	10pct	1	50pct	50pct	8000	15912	23920	15604	57	24166	246	0	0	4
6.1.1	win	2020-04-15	19:30:00	1	1	1	USRTblock	1	USRT	7	600000	#ff0000	10pct	1	50pct	50pct	7000	24169	31185	23920	57	31426	241	0	0	5
6.1.1	win	2020-04-15	19:30:00	1	1	1	USRTblock	1	USRT	8	600000	#ff0000	10pct	1	50pct	50pct	8000	31430	39435	31185	57	39664	229	0	0	6
6.1.1	win	2020-04-15	19:30:00	1	1	1	USRTblock	1	USRT	9	600000	#ff0000	10pct	1	50pct	50pct	5000	39668	44685	39435	57	45012	327	0	0	7
6.1.1	win	2020-04-15	19:30:00	1	1	1	USRTblock	1	USRT	10	600000	#ff0000	10pct	1	50pct	50pct	4000	45016	49034	44685	57	49287	253	0	0	8
6.1.1	win	2020-04-15	19:30:00	1	1	1	USRTblock	1	USRT	11	600000	#ff0000	10pct	1	50pct	50pct	2000	49290	51300	49034	57	51823	523	0	0	9
6.1.1	win	2020-04-15	19:30:00	1	1	1	USRTblock	1	USRT	12	600000	#ff0000	10pct	1	50pct	50pct	7000	51826	58833	51300	57	59209	376	0	0	10
6.1.1	win	2020-04-15	19:30:00	1	1	1	USRTblock	1	USRT	13	600000	#ff0000	10pct	1	50pct	50pct	5000	59213	64232	58833	57	64475	243	0	0	11
6.1.1	win	2020-04-15	19:30:00	1	1	1	USRTblock	1	USRT	14	600000	#ff0000	10pct	1	50pct	50pct	8000	64479	72498	64232	57	72755	257	0	0	12
6.1.1	win	2020-04-15	19:30:00	1	1	1	USRTblock	1	USRT	15	600000	#ff0000	10pct	1	50pct	50pct	5000	72758	77764	72498	57	78020	256	0	0	13
6.1.1	win	2020-04-15	19:30:00	1	1	1	USRTblock	1	USRT	16	600000	#ff0000	10pct	1	50pct	50pct	5000	78024	83030	77764	57	83330	300	0	0	14
6.1.1	win	2020-04-15	19:30:00	1	1	1	USRTblock	1	USRT	17	600000	#ff0000	10pct	1	50pct	50pct	3000	83333	86347	83030	57	86666	319	0	0	15
6.1.1	win	2020-04-15	19:30:00	1	1	1	USRTblock	1	USRT	18	600000	#ff0000	10pct	1	50pct	50pct	2000	86669	88679	86347	57	89018	339	0	0	16
6.1.1	win	2020-04-15	19:30:00	1	1	1	USRTblock	1	USRT	19	600000	#ff0000	10pct	1	50pct	50pct	6000	89023	95046	88679	57	95331	285	0	0	17
6.1.1	win	2020-04-15	19:30:00	1	1	1	USRTblock	1	USRT	20	600000	#ff0000	10pct	1	50pct	50pct	3000	95334	98345	95046	57	98633	288	0	0	18
6.1.1	win	2020-04-15	19:30:00	1	1	1	USRTblock	1	USRT	21	600000	#ff0000	10pct	1	50pct	50pct	8000	98637	106645	98345	57	106901	256	0	0	19
6.1.1	win	2020-04-15	19:30:00	1	1	1	USRTblock	1	USRT	22	600000	#ff0000	10pct	1	50pct	50pct	6000	106905	112911	106645	57	113168	257	0	0	20
6.1.1	win	2020-04-15	19:30:00	1	1	1	USRTblock	1	USRT	23	600000	#ff0000	10pct	1	50pct	50pct	8000	113171	121177	112911	57	121424	247	0	0	21
6.1.1	win	2020-04-15	19:30:00	1	1	1	USRTblock	1	USRT	24	600000	#ff0000	10pct	1	50pct	50pct	6000	121428	127443	121177	57	127688	245	0	0	22
6.1.1	win	2020-04-15	19:30:00	1	1	1	USRTblock	1	USRT	25	600000	#ff0000	10pct	1	50pct	50pct	2000	127692	129709	127443	57	130015	306	0	0	23
6.1.1	win	2020-04-15	19:30:00	1	1	1	USRTblock	1	USRT	26	600000	#ff0000	10pct	1	50pct	50pct	4000	130018	134025	129709	57	134280	255	0	0	24
6.1.1	win	2020-04-15	19:30:00	1	1	1	USRTblock	1	USRT	27	600000	#ff0000	10pct	1	50pct	50pct	7000	134284	141291	134025	57	141554	263	0	0	25
6.1.1	win	2020-04-15	19:30:00	1	1	1	USRTblock	1	USRT	28	600000	#ff0000	10pct	1	50pct	50pct	7000	141557	148574	141291	57	148874	300	0	0	26
6.1.1	win	2020-04-15	19:30:00	1	1	1	USRTblock	1	USRT	29	600000	#ff0000	10pct	1	50pct	50pct	5000	148877	153890	148574	57	154210	320	0	0	27
6.1.1	win	2020-04-15	19:30:00	1	1	1	USRTblock	1	USRT	30	600000	#ff0000	10pct	1	50pct	50pct	2000	154215	156223	153890	57	156800	577	0	0	28
6.1.1	win	2020-04-15	19:30:00	1	1	1	USRTblock	1	USRT	31	600000	#ff0000	10pct	1	50pct	50pct	8000	156804	164822	156223	57	165200	378	0	0	29
6.1.1	win	2020-04-15	19:30:00	1	1	1	USRTblock	1	USRT	32	600000	#ff0000	10pct	1	50pct	50pct	7000	165203	172222	164822	57	172602	380	0	0	30
6.1.1	win	2020-04-15	19:30:00	1	1	1	USRTblock	1	USRT	33	600000	#ff0000	10pct	1	50pct	50pct	7000	172605	179621	172222	57	179912	291	0	0	31
6.1.1	win	2020-04-15	19:30:00	1	1	1	USRTblock	1	USRT	34	600000	#ff0000	10pct	1	50pct	50pct	3000	179915	182937	179621	57	183271	334	0	0	32
6.1.1	win	2020-04-15	19:30:00	1	1	1	USRTblock	1	USRT	35	600000	#ff0000	10pct	1	50pct	50pct	3000	183276	186287	182937	57	186585	298	0	0	33
6.1.1	win	2020-04-15	19:30:00	1	1	1	USRTblock	1	USRT	36	600000	#ff0000	10pct	1	50pct	50pct	8000	186588	194603	186287	57	194936	333	0	0	34
6.1.1	win	2020-04-15	19:30:00	1	1	1	USRTblock	1	USRT	37	600000	#ff0000	10pct	1	50pct	50pct	4000	194940	198952	194603	57	199488	536	0	0	35
6.1.1	win	2020-04-15	19:30:00	1	1	1	USRTblock	1	USRT	38	600000	#ff0000	10pct	1	50pct	50pct	3000	199492	202502	198952	57	202801	299	0	0	36
6.1.1	win	2020-04-15	19:30:00	1	1	1	USRTblock	1	USRT	39	600000	#ff0000	10pct	1	50pct	50pct	3000	202804	205818	202502	57	206128	310	0	0	37
6.1.1	win	2020-04-15	19:30:00	1	1	1	USRTblock	1	USRT	40	600000	#ff0000	10pct	1	50pct	50pct	7000	206132	213151	205818	57	213404	253	0	0	38
6.1.1	win	2020-04-15	19:30:00	1	1	1	USRTblock	1	USRT	41	600000	#ff0000	10pct	1	50pct	50pct	7000	213407	220417	213151	57	220648	231	0	0	39
6.1.1	win	2020-04-15	19:30:00	1	1	1	USRTblock	1	USRT	42	600000	#ff0000	10pct	1	50pct	50pct	2000	220652	222666	220417	57	222969	303	0	0	40
6.1.1	win	2020-04-15	19:30:00	1	1	1	USRTblock	1	USRT	43	600000	#ff0000	10pct	1	50pct	50pct	2000	222972	224982	222666	57	225495	513	0	0	41
6.1.1	win	2020-04-15	19:30:00	1	1	1	USRTblock	1	USRT	44	600000	#ff0000	10pct	1	50pct	50pct	3000	225499	228516	224982	57	228855	339	0	0	42
6.1.1	win	2020-04-15	19:30:00	1	1	1	USRTblock	1	USRT	45	600000	#ff0000	10pct	1	50pct	50pct	3000	228858	231866	228516	57	232175	309	0	0	43
6.1.1	win	2020-04-15	19:30:00	1	1	1	USRTblock	1	USRT	46	600000	#ff0000	10pct	1	50pct	50pct	7000	232178	239198	231866	57	239596	398	0	0	44
6.1.1	win	2020-04-15	19:30:00	1	1	1	USRTblock	1	USRT	47	600000	#ff0000	10pct	1	50pct	50pct	4000	239600	243615	239198	57	244054	439	0	0	45
6.1.1	win	2020-04-15	19:30:00	1	1	1	USRTblock	1	USRT	48	600000	#ff0000	10pct	1	50pct	50pct	5000	244058	249064	243615	57	249340	276	0	0	46
6.1.1	win	2020-04-15	19:30:00	1	1	1	USRTblock	1	USRT	49	600000	#ff0000	10pct	1	50pct	50pct	7000	249344	256363	249064	57	256611	248	0	0	47
6.1.1	win	2020-04-15	19:30:00	1	1	1	USRTblock	1	USRT	50	600000	#ff0000	10pct	1	50pct	50pct	6000	256615	-1	256363	57	261353	0	1	1	48
6.1.1	win	2020-04-15	19:30:00	1	1	1	USRTblock	1	USRT	51	600000	#ff0000	10pct	1	50pct	50pct	4000	261356	265362	-1	57	265739	377	0	1	49
6.1.1	win	2020-04-15	19:30:00	1	1	1	USRTblock	1	USRT	52	600000	#ff0000	10pct	1	50pct	50pct	2000	265742	267762	265362	57	268355	593	0	1	50
6.1.1	win	2020-04-15	19:30:00	1	1	1	USRTblock	1	USRT	53	600000	#ff0000	10pct	1	50pct	50pct	2000	268358	270378	267762	57	270885	507	0	1	51
6.1.1	win	2020-04-15	19:30:00	1	1	1	USRTblock	1	USRT	54	600000	#ff0000	10pct	1	50pct	50pct	8000	270888	278895	270378	57	279170	275	0	1	52
6.1.1	win	2020-04-15	19:30:00	1	1	1	USRTblock	1	USRT	55	600000	#ff0000	10pct	1	50pct	50pct	6000	279174	285194	278895	57	285431	237	0	1	53
6.1.1	win	2020-04-15	19:30:00	1	1	1	USRTblock	1	USRT	56	600000	#ff0000	10pct	1	50pct	50pct	5000	285434	290443	285194	57	290683	240	0	1	54
6.1.1	win	2020-04-15	19:30:00	1	1	1	USRTblock	1	USRT	57	600000	#ff0000	10pct	1	50pct	50pct	8000	290686	298692	290443	57	298998	306	0	1	55
6.1.1	win	2020-04-15	19:30:00	1	1	1	USRTblock	1	USRT	58	600000	#ff0000	10pct	1	50pct	50pct	6000	299002	305008	298692	57	305315	307	0	1	56
6.1.1	win	2020-04-15	19:30:00	1	1	1	USRTblock	1	USRT	59	600000	#ff0000	10pct	1	50pct	50pct	6000	305319	311324	305008	57	311596	272	0	1	57
6.1.1	win	2020-04-15	19:30:00	1	1	1	USRTblock	1	USRT	60	600000	#ff0000	10pct	1	50pct	50pct	5000	311600	316607	311324	57	316869	262	0	1	58
6.1.1	win	2020-04-15	19:30:00	1	1	1	USRTblock	1	USRT	61	600000	#ff0000	10pct	1	50pct	50pct	8000	316872	324890	316607	57	325200	310	0	1	59
6.1.1	win	2020-04-15	19:30:00	1	1	1	USRTblock	1	USRT	62	600000	#ff0000	10pct	1	50pct	50pct	2000	325204	327222	324890	57	327553	331	0	1	60
6.1.1	win	2020-04-15	19:30:00	1	1	1	USRTblock	1	USRT	63	600000	#ff0000	10pct	1	50pct	50pct	8000	327556	335572	327222	57	335841	269	0	1	61
6.1.1	win	2020-04-15	19:30:00	1	1	1	USRTblock	1	USRT	64	600000	#ff0000	10pct	1	50pct	50pct	6000	335845	341855	335572	57	342086	231	0	1	62
6.1.1	win	2020-04-15	19:30:00	1	1	1	USRTblock	1	USRT	65	600000	#ff0000	10pct	1	50pct	50pct	7000	342090	349105	341855	57	349353	248	0	1	63
6.1.1	win	2020-04-15	19:30:00	1	1	1	USRTblock	1	USRT	66	600000	#ff0000	10pct	1	50pct	50pct	6000	349357	355370	349105	57	355639	269	0	1	64
6.1.1	win	2020-04-15	19:30:00	1	1	1	USRTblock	1	USRT	67	600000	#ff0000	10pct	1	50pct	50pct	6000	355643	361652	355370	57	362019	367	0	1	65
6.1.1	win	2020-04-15	19:30:00	1	1	1	USRTblock	1	USRT	68	600000	#ff0000	10pct	1	50pct	50pct	6000	362023	368036	361652	57	368327	291	0	1	66
6.1.1	win	2020-04-15	19:30:00	1	1	1	USRTblock	1	USRT	69	600000	#ff0000	10pct	1	50pct	50pct	8000	368330	376335	368036	57	376571	236	0	1	67
6.1.1	win	2020-04-15	19:30:00	1	1	1	USRTblock	1	USRT	70	600000	#ff0000	10pct	1	50pct	50pct	7000	376575	383584	376335	57	383828	244	0	1	68
6.1.1	win	2020-04-15	19:30:00	1	1	1	USRTblock	1	USRT	71	600000	#ff0000	10pct	1	50pct	50pct	4000	383832	387850	383584	57	388091	241	0	1	69
6.1.1	win	2020-04-15	19:30:00	1	1	1	USRTblock	1	USRT	72	600000	#ff0000	10pct	1	50pct	50pct	4000	388094	392100	387850	57	392367	267	0	1	70
6.1.1	win	2020-04-15	19:30:00	1	1	1	USRTblock	1	USRT	73	600000	#ff0000	10pct	1	50pct	50pct	8000	392371	400382	392100	57	400641	259	0	1	71
6.1.1	win	2020-04-15	19:30:00	1	1	1	USRTblock	1	USRT	74	600000	#ff0000	10pct	1	50pct	50pct	6000	400644	406665	400382	57	406914	249	0	1	72
6.1.1	win	2020-04-15	19:30:00	1	1	1	USRTblock	1	USRT	75	600000	#ff0000	10pct	1	50pct	50pct	7000	406917	413931	406665	57	414181	250	0	1	73
6.1.1	win	2020-04-15	19:30:00	1	1	1	USRTblock	1	USRT	76	600000	#ff0000	10pct	1	50pct	50pct	4000	414184	418197	413931	57	418578	381	0	1	74
6.1.1	win	2020-04-15	19:30:00	1	1	1	USRTblock	1	USRT	77	600000	#ff0000	10pct	1	50pct	50pct	5000	418582	423596	418197	57	423898	302	0	1	75
6.1.1	win	2020-04-15	19:30:00	1	1	1	USRTblock	1	USRT	78	600000	#ff0000	10pct	1	50pct	50pct	2000	423902	425913	423596	57	426306	393	0	1	76
6.1.1	win	2020-04-15	19:30:00	1	1	1	USRTblock	1	USRT	79	600000	#ff0000	10pct	1	50pct	50pct	8000	426310	434329	425913	57	434619	290	0	1	77
6.1.1	win	2020-04-15	19:30:00	1	1	1	USRTblock	1	USRT	80	600000	#ff0000	10pct	1	50pct	50pct	7000	434622	441628	434329	57	441872	244	0	1	78
6.1.1	win	2020-04-15	19:30:00	1	1	1	USRTblock	1	USRT	81	600000	#ff0000	10pct	1	50pct	50pct	5000	441876	446895	441628	57	447205	310	0	1	79
6.1.1	win	2020-04-15	19:30:00	1	1	1	USRTblock	1	USRT	82	600000	#ff0000	10pct	1	50pct	50pct	7000	447208	454227	446895	57	454513	286	0	1	80
6.1.1	win	2020-04-15	19:30:00	1	1	1	USRTblock	1	USRT	83	600000	#ff0000	10pct	1	50pct	50pct	6000	454517	460526	454227	57	460787	261	0	1	81
6.1.1	win	2020-04-15	19:30:00	1	1	1	USRTblock	1	USRT	84	600000	#ff0000	10pct	1	50pct	50pct	5000	460790	465809	460526	57	466152	343	0	1	82
6.1.1	win	2020-04-15	19:30:00	1	1	1	USRTblock	1	USRT	85	600000	#ff0000	10pct	1	50pct	50pct	5000	466155	471175	465809	57	471428	253	0	1	83
6.1.1	win	2020-04-15	19:30:00	1	1	1	USRTblock	1	USRT	86	600000	#ff0000	10pct	1	50pct	50pct	4000	471432	475441	471175	57	475773	332	0	1	84
6.1.1	win	2020-04-15	19:30:00	1	1	1	USRTblock	1	USRT	87	600000	#ff0000	10pct	1	50pct	50pct	5000	475776	480791	475441	57	481135	344	0	1	85
6.1.1	win	2020-04-15	19:30:00	1	1	1	USRTblock	1	USRT	88	600000	#ff0000	10pct	1	50pct	50pct	7000	481139	488157	480791	57	488405	248	0	1	86
6.1.1	win	2020-04-15	19:30:00	1	1	1	USRTblock	1	USRT	89	600000	#ff0000	10pct	1	50pct	50pct	7000	488409	495423	488157	57	495664	241	0	1	87
6.1.1	win	2020-04-15	19:30:00	1	1	1	USRTblock	1	USRT	90	600000	#ff0000	10pct	1	50pct	50pct	5000	495669	500688	495423	57	500967	279	0	1	88
6.1.1	win	2020-04-15	19:30:00	1	1	1	USRTblock	1	USRT	91	600000	#ff0000	10pct	1	50pct	50pct	8000	500971	508987	500688	57	509264	277	0	1	89
6.1.1	win	2020-04-15	19:30:00	1	1	1	USRTblock	1	USRT	92	600000	#ff0000	10pct	1	50pct	50pct	2000	509268	511287	508987	57	511956	669	0	1	90
6.1.1	win	2020-04-15	19:30:00	1	1	1	USRTblock	1	USRT	93	600000	#ff0000	10pct	1	50pct	50pct	8000	511960	519971	511287	57	520251	280	0	1	91
6.1.1	win	2020-04-15	19:30:00	1	1	1	USRTblock	1	USRT	94	600000	#ff0000	10pct	1	50pct	50pct	2000	520255	522269	519971	57	522649	380	0	1	92
6.1.1	win	2020-04-15	19:30:00	1	1	1	USRTblock	1	USRT	95	600000	#ff0000	10pct	1	50pct	50pct	4000	522654	526669	522269	57	527017	348	0	1	93
6.1.1	win	2020-04-15	19:30:00	1	1	1	USRTblock	1	USRT	96	600000	#ff0000	10pct	1	50pct	50pct	3000	527021	530035	526669	57	530417	382	0	1	94
6.1.1	win	2020-04-15	19:30:00	1	1	1	USRTblock	1	USRT	97	600000	#ff0000	10pct	1	50pct	50pct	2000	530420	532435	530035	57	532771	336	0	1	95
6.1.1	win	2020-04-15	19:30:00	1	1	1	USRTblock	1	USRT	98	600000	#ff0000	10pct	1	50pct	50pct	6000	532774	538785	532435	57	539063	278	0	1	96
6.1.1	win	2020-04-15	19:30:00	1	1	1	USRTblock	1	USRT	99	600000	#ff0000	10pct	1	50pct	50pct	5000	539067	544084	538785	57	544400	316	0	1	97
6.1.1	win	2020-04-15	19:30:00	1	1	1	USRTblock	1	USRT	100	600000	#ff0000	10pct	1	50pct	50pct	3000	544404	547417	544084	57	547716	299	0	1	98
6.1.1	win	2020-04-15	19:30:00	1	1	1	USRTblock	1	USRT	101	600000	#ff0000	10pct	1	50pct	50pct	3000	547720	550733	547417	57	551005	272	0	1	99
6.1.1	win	2020-04-15	19:30:00	1	1	1	USRTblock	1	USRT	102	600000	#ff0000	10pct	1	50pct	50pct	6000	551008	557016	550733	57	557278	262	0	1	100
6.1.1	win	2020-04-15	19:30:00	1	1	1	USRTblock	1	USRT	103	600000	#ff0000	10pct	1	50pct	50pct	2000	557282	559300	557016	57	559846	546	0	1	101
6.1.1	win	2020-04-15	19:30:00	1	1	1	USRTblock	1	USRT	104	600000	#ff0000	10pct	1	50pct	50pct	6000	559850	565866	559300	57	566153	287	0	1	102
6.1.1	win	2020-04-15	19:30:00	1	1	1	USRTblock	1	USRT	105	600000	#ff0000	10pct	1	50pct	50pct	3000	566157	569165	565866	57	569709	544	0	1	103
6.1.1	win	2020-04-15	19:30:00	1	1	1	USRTblock	1	USRT	106	600000	#ff0000	10pct	1	50pct	50pct	8000	569713	577731	569165	57	577978	247	0	1	104
6.1.1	win	2020-04-15	19:30:00	1	1	1	USRTblock	1	USRT	107	600000	#ff0000	10pct	1	50pct	50pct	2000	577981	579997	577731	57	580353	356	0	1	105
6.1.1	win	2020-04-15	19:30:00	1	1	1	USRTblock	1	USRT	108	600000	#ff0000	10pct	1	50pct	50pct	6000	580357	586363	579997	57	586600	237	0	1	106
6.1.1	win	2020-04-15	19:30:00	1	1	1	USRTblock	1	USRT	109	600000	#ff0000	10pct	1	50pct	50pct	6000	586603	592613	586363	57	592864	251	0	1	107
6.1.1	win	2020-04-15	19:30:00	1	1	1	USRTblock	1	USRT	110	600000	#ff0000	10pct	1	50pct	50pct	4000	592867	596879	592613	57	597177	298	0	1	108
6.1.1	win	2020-04-15	19:30:00	1	1	1	USRTblock	1	USRT	111	600000	#ff0000	10pct	1	50pct	50pct	8000	597182	-1	596879	0	597257	0	1	2	109
