build	computer.platform	date	time	subject	group	sessionid	blockcode	blocknum	trialcode	trialnum	testduration	targetcolor	targetsize	fixed	targetx	targety	stiminterval	trialStart	shape.targetcircle.timestamp	lastCircleTimestamp	response	rt_elapsed	rt	EarlyResponse	countEarlyResponses	countResponses
6.1.1	win	2020-04-15	19:45:47	1	1	1	USRTblock	1	USRT	3	600000	#ff0000	10pct	1	50pct	50pct	6000	2613	8629	1876	57	8878	249	0	0	1
6.1.1	win	2020-04-15	19:45:47	1	1	1	USRTblock	1	USRT	4	600000	#ff0000	10pct	1	50pct	50pct	7000	8886	15895	8629	57	16172	277	0	0	2
6.1.1	win	2020-04-15	19:45:47	1	1	1	USRTblock	1	USRT	5	600000	#ff0000	10pct	1	50pct	50pct	2000	16176	18194	15895	57	18531	337	0	0	3
6.1.1	win	2020-04-15	19:45:47	1	1	1	USRTblock	1	USRT	6	600000	#ff0000	10pct	1	50pct	50pct	5000	18535	23544	18194	57	23796	252	0	0	4
6.1.1	win	2020-04-15	19:45:47	1	1	1	USRTblock	1	USRT	7	600000	#ff0000	10pct	1	50pct	50pct	3000	23801	26810	23544	57	27065	255	0	0	5
6.1.1	win	2020-04-15	19:45:47	1	1	1	USRTblock	1	USRT	8	600000	#ff0000	10pct	1	50pct	50pct	2000	27068	29076	26810	57	29365	289	0	0	6
6.1.1	win	2020-04-15	19:45:47	1	1	1	USRTblock	1	USRT	9	600000	#ff0000	10pct	1	50pct	50pct	8000	29368	37376	29076	57	37665	289	0	0	7
6.1.1	win	2020-04-15	19:45:47	1	1	1	USRTblock	1	USRT	10	600000	#ff0000	10pct	1	50pct	50pct	5000	37668	42675	37376	57	42942	267	0	0	8
6.1.1	win	2020-04-15	19:45:47	1	1	1	USRTblock	1	USRT	11	600000	#ff0000	10pct	1	50pct	50pct	2000	42946	44958	42675	57	45463	505	0	0	9
6.1.1	win	2020-04-15	19:45:47	1	1	1	USRTblock	1	USRT	12	600000	#ff0000	10pct	1	50pct	50pct	6000	45467	51475	44958	57	51745	270	0	0	10
6.1.1	win	2020-04-15	19:45:47	1	1	1	USRTblock	1	USRT	13	600000	#ff0000	10pct	1	50pct	50pct	4000	51749	55757	51475	57	56042	285	0	0	11
6.1.1	win	2020-04-15	19:45:47	1	1	1	USRTblock	1	USRT	14	600000	#ff0000	10pct	1	50pct	50pct	8000	56046	64057	55757	57	64304	247	0	0	12
6.1.1	win	2020-04-15	19:45:47	1	1	1	USRTblock	1	USRT	15	600000	#ff0000	10pct	1	50pct	50pct	2000	64307	66322	64057	57	66626	304	0	0	13
6.1.1	win	2020-04-15	19:45:47	1	1	1	USRTblock	1	USRT	16	600000	#ff0000	10pct	1	50pct	50pct	3000	66629	69639	66322	57	69931	292	0	0	14
6.1.1	win	2020-04-15	19:45:47	1	1	1	USRTblock	1	USRT	17	600000	#ff0000	10pct	1	50pct	50pct	7000	69935	76956	69639	57	77273	317	0	0	15
6.1.1	win	2020-04-15	19:45:47	1	1	1	USRTblock	1	USRT	18	600000	#ff0000	10pct	1	50pct	50pct	2000	77278	79288	76956	57	79594	306	0	0	16
6.1.1	win	2020-04-15	19:45:47	1	1	1	USRTblock	1	USRT	19	600000	#ff0000	10pct	1	50pct	50pct	6000	79599	85621	79288	57	85898	277	0	0	17
6.1.1	win	2020-04-15	19:45:47	1	1	1	USRTblock	1	USRT	20	600000	#ff0000	10pct	1	50pct	50pct	8000	85902	93920	85621	57	94217	297	0	0	18
6.1.1	win	2020-04-15	19:45:47	1	1	1	USRTblock	1	USRT	21	600000	#ff0000	10pct	1	50pct	50pct	2000	94221	96237	93920	57	96518	281	0	0	19
6.1.1	win	2020-04-15	19:45:47	1	1	1	USRTblock	1	USRT	22	600000	#ff0000	10pct	1	50pct	50pct	7000	96522	103536	96237	57	103810	274	0	0	20
6.1.1	win	2020-04-15	19:45:47	1	1	1	USRTblock	1	USRT	23	600000	#ff0000	10pct	1	50pct	50pct	3000	103813	106819	103536	57	107099	280	0	0	21
6.1.1	win	2020-04-15	19:45:47	1	1	1	USRTblock	1	USRT	24	600000	#ff0000	10pct	1	50pct	50pct	7000	107102	114118	106819	57	114387	269	0	0	22
6.1.1	win	2020-04-15	19:45:47	1	1	1	USRTblock	1	USRT	25	600000	#ff0000	10pct	1	50pct	50pct	3000	114391	117401	114118	57	117737	336	0	0	23
6.1.1	win	2020-04-15	19:45:47	1	1	1	USRTblock	1	USRT	26	600000	#ff0000	10pct	1	50pct	50pct	8000	117740	125751	117401	57	126050	299	0	0	24
6.1.1	win	2020-04-15	19:45:47	1	1	1	USRTblock	1	USRT	27	600000	#ff0000	10pct	1	50pct	50pct	8000	126053	134067	125751	57	134370	303	0	0	25
6.1.1	win	2020-04-15	19:45:47	1	1	1	USRTblock	1	USRT	28	600000	#ff0000	10pct	1	50pct	50pct	3000	134374	137382	134067	57	137700	318	0	0	26
6.1.1	win	2020-04-15	19:45:47	1	1	1	USRTblock	1	USRT	29	600000	#ff0000	10pct	1	50pct	50pct	3000	137703	140716	137382	57	140977	261	0	0	27
6.1.1	win	2020-04-15	19:45:47	1	1	1	USRTblock	1	USRT	30	600000	#ff0000	10pct	1	50pct	50pct	7000	140981	147998	140716	57	148245	247	0	0	28
6.1.1	win	2020-04-15	19:45:47	1	1	1	USRTblock	1	USRT	31	600000	#ff0000	10pct	1	50pct	50pct	5000	148248	153264	147998	57	153532	268	0	0	29
6.1.1	win	2020-04-15	19:45:47	1	1	1	USRTblock	1	USRT	32	600000	#ff0000	10pct	1	50pct	50pct	5000	153536	158548	153264	57	158838	290	0	0	30
6.1.1	win	2020-04-15	19:45:47	1	1	1	USRTblock	1	USRT	33	600000	#ff0000	10pct	1	50pct	50pct	3000	158841	161846	158548	57	162155	309	0	0	31
6.1.1	win	2020-04-15	19:45:47	1	1	1	USRTblock	1	USRT	34	600000	#ff0000	10pct	1	50pct	50pct	8000	162159	170180	161846	57	170543	363	0	0	32
6.1.1	win	2020-04-15	19:45:47	1	1	1	USRTblock	1	USRT	35	600000	#ff0000	10pct	1	50pct	50pct	7000	170547	177562	170180	57	177885	323	0	0	33
6.1.1	win	2020-04-15	19:45:47	1	1	1	USRTblock	1	USRT	36	600000	#ff0000	10pct	1	50pct	50pct	3000	177889	180894	177562	57	181203	309	0	0	34
6.1.1	win	2020-04-15	19:45:47	1	1	1	USRTblock	1	USRT	37	600000	#ff0000	10pct	1	50pct	50pct	4000	181207	185228	180894	57	185541	313	0	0	35
6.1.1	win	2020-04-15	19:45:47	1	1	1	USRTblock	1	USRT	38	600000	#ff0000	10pct	1	50pct	50pct	4000	185544	189561	185228	57	189938	377	0	0	36
6.1.1	win	2020-04-15	19:45:47	1	1	1	USRTblock	1	USRT	39	600000	#ff0000	10pct	1	50pct	50pct	3000	189942	192961	189561	57	193297	336	0	0	37
6.1.1	win	2020-04-15	19:45:47	1	1	1	USRTblock	1	USRT	40	600000	#ff0000	10pct	1	50pct	50pct	8000	193301	201310	192961	57	201760	450	0	0	38
6.1.1	win	2020-04-15	19:45:47	1	1	1	USRTblock	1	USRT	41	600000	#ff0000	10pct	1	50pct	50pct	7000	201763	208776	201310	57	209090	314	0	0	39
6.1.1	win	2020-04-15	19:45:47	1	1	1	USRTblock	1	USRT	42	600000	#ff0000	10pct	1	50pct	50pct	2000	209094	211108	208776	57	211580	472	0	0	40
6.1.1	win	2020-04-15	19:45:47	1	1	1	USRTblock	1	USRT	43	600000	#ff0000	10pct	1	50pct	50pct	2000	211583	213592	211108	57	213962	370	0	0	41
6.1.1	win	2020-04-15	19:45:47	1	1	1	USRTblock	1	USRT	44	600000	#ff0000	10pct	1	50pct	50pct	5000	213966	218975	213592	57	219246	271	0	0	42
6.1.1	win	2020-04-15	19:45:47	1	1	1	USRTblock	1	USRT	45	600000	#ff0000	10pct	1	50pct	50pct	7000	219249	226257	218975	57	226519	262	0	0	43
6.1.1	win	2020-04-15	19:45:47	1	1	1	USRTblock	1	USRT	46	600000	#ff0000	10pct	1	50pct	50pct	6000	226522	232540	226257	57	232802	262	0	0	44
6.1.1	win	2020-04-15	19:45:47	1	1	1	USRTblock	1	USRT	47	600000	#ff0000	10pct	1	50pct	50pct	6000	232805	238822	232540	57	239153	331	0	0	45
6.1.1	win	2020-04-15	19:45:47	1	1	1	USRTblock	1	USRT	48	600000	#ff0000	10pct	1	50pct	50pct	4000	239157	243172	238822	57	243500	328	0	0	46
6.1.1	win	2020-04-15	19:45:47	1	1	1	USRTblock	1	USRT	49	600000	#ff0000	10pct	1	50pct	50pct	8000	243504	251521	243172	57	251761	240	0	0	47
6.1.1	win	2020-04-15	19:45:47	1	1	1	USRTblock	1	USRT	50	600000	#ff0000	10pct	1	50pct	50pct	2000	251764	253771	251521	57	254131	360	0	0	48
6.1.1	win	2020-04-15	19:45:47	1	1	1	USRTblock	1	USRT	51	600000	#ff0000	10pct	1	50pct	50pct	5000	254135	259153	253771	57	259455	302	0	0	49
6.1.1	win	2020-04-15	19:45:47	1	1	1	USRTblock	1	USRT	52	600000	#ff0000	10pct	1	50pct	50pct	6000	259459	265470	259153	57	265747	277	0	0	50
6.1.1	win	2020-04-15	19:45:47	1	1	1	USRTblock	1	USRT	53	600000	#ff0000	10pct	1	50pct	50pct	7000	265751	272769	265470	57	273031	262	0	0	51
6.1.1	win	2020-04-15	19:45:47	1	1	1	USRTblock	1	USRT	54	600000	#ff0000	10pct	1	50pct	50pct	3000	273034	276051	272769	57	276550	499	0	0	52
6.1.1	win	2020-04-15	19:45:47	1	1	1	USRTblock	1	USRT	55	600000	#ff0000	10pct	1	50pct	50pct	6000	276554	282568	276051	57	282893	325	0	0	53
6.1.1	win	2020-04-15	19:45:47	1	1	1	USRTblock	1	USRT	56	600000	#ff0000	10pct	1	50pct	50pct	7000	282896	289901	282568	57	290328	427	0	0	54
6.1.1	win	2020-04-15	19:45:47	1	1	1	USRTblock	1	USRT	57	600000	#ff0000	10pct	1	50pct	50pct	4000	290333	294351	289901	57	294732	381	0	0	55
6.1.1	win	2020-04-15	19:45:47	1	1	1	USRTblock	1	USRT	58	600000	#ff0000	10pct	1	50pct	50pct	4000	294736	298749	294351	57	299079	330	0	0	56
6.1.1	win	2020-04-15	19:45:47	1	1	1	USRTblock	1	USRT	59	600000	#ff0000	10pct	1	50pct	50pct	7000	299083	306099	298749	57	306363	264	0	0	57
6.1.1	win	2020-04-15	19:45:47	1	1	1	USRTblock	1	USRT	60	600000	#ff0000	10pct	1	50pct	50pct	4000	306366	310381	306099	57	310696	315	0	0	58
6.1.1	win	2020-04-15	19:45:47	1	1	1	USRTblock	1	USRT	61	600000	#ff0000	10pct	1	50pct	50pct	3000	310699	313715	310381	57	314003	288	0	0	59
6.1.1	win	2020-04-15	19:45:47	1	1	1	USRTblock	1	USRT	62	600000	#ff0000	10pct	1	50pct	50pct	8000	314007	322014	313715	57	322306	292	0	0	60
6.1.1	win	2020-04-15	19:45:47	1	1	1	USRTblock	1	USRT	63	600000	#ff0000	10pct	1	50pct	50pct	5000	322310	327330	322014	57	327663	333	0	0	61
6.1.1	win	2020-04-15	19:45:47	1	1	1	USRTblock	1	USRT	64	600000	#ff0000	10pct	1	50pct	50pct	8000	327666	335679	327330	57	336161	482	0	0	62
6.1.1	win	2020-04-15	19:45:47	1	1	1	USRTblock	1	USRT	65	600000	#ff0000	10pct	1	50pct	50pct	3000	336165	339179	335679	57	339520	341	0	0	63
6.1.1	win	2020-04-15	19:45:47	1	1	1	USRTblock	1	USRT	66	600000	#ff0000	10pct	1	50pct	50pct	2000	339523	341528	339179	57	341832	304	0	0	64
6.1.1	win	2020-04-15	19:45:47	1	1	1	USRTblock	1	USRT	67	600000	#ff0000	10pct	1	50pct	50pct	7000	341835	348845	341528	57	349100	255	0	0	65
6.1.1	win	2020-04-15	19:45:47	1	1	1	USRTblock	1	USRT	68	600000	#ff0000	10pct	1	50pct	50pct	4000	349104	353111	348845	57	353368	257	0	0	66
6.1.1	win	2020-04-15	19:45:47	1	1	1	USRTblock	1	USRT	69	600000	#ff0000	10pct	1	50pct	50pct	3000	353371	356378	353111	57	356738	360	0	0	67
6.1.1	win	2020-04-15	19:45:47	1	1	1	USRTblock	1	USRT	70	600000	#ff0000	10pct	1	50pct	50pct	5000	356742	361759	356378	57	362011	252	0	0	68
6.1.1	win	2020-04-15	19:45:47	1	1	1	USRTblock	1	USRT	71	600000	#ff0000	10pct	1	50pct	50pct	7000	362014	369026	361759	57	369260	234	0	0	69
6.1.1	win	2020-04-15	19:45:47	1	1	1	USRTblock	1	USRT	72	600000	#ff0000	10pct	1	50pct	50pct	4000	369263	373275	369026	57	373570	295	0	0	70
6.1.1	win	2020-04-15	19:45:47	1	1	1	USRTblock	1	USRT	73	600000	#ff0000	10pct	1	50pct	50pct	4000	373573	377592	373275	57	377989	397	0	0	71
6.1.1	win	2020-04-15	19:45:47	1	1	1	USRTblock	1	USRT	74	600000	#ff0000	10pct	1	50pct	50pct	8000	377992	386008	377592	57	386288	280	0	0	72
6.1.1	win	2020-04-15	19:45:47	1	1	1	USRTblock	1	USRT	75	600000	#ff0000	10pct	1	50pct	50pct	7000	386292	393307	386008	57	393575	268	0	0	73
6.1.1	win	2020-04-15	19:45:47	1	1	1	USRTblock	1	USRT	76	600000	#ff0000	10pct	1	50pct	50pct	6000	393579	399590	393307	57	399852	262	0	0	74
6.1.1	win	2020-04-15	19:45:47	1	1	1	USRTblock	1	USRT	77	600000	#ff0000	10pct	1	50pct	50pct	4000	399856	403872	399590	57	404199	327	0	0	75
6.1.1	win	2020-04-15	19:45:47	1	1	1	USRTblock	1	USRT	78	600000	#ff0000	10pct	1	50pct	50pct	5000	404202	409222	403872	57	409482	260	0	0	76
6.1.1	win	2020-04-15	19:45:47	1	1	1	USRTblock	1	USRT	79	600000	#ff0000	10pct	1	50pct	50pct	5000	409485	414505	409222	57	414757	252	0	0	77
6.1.1	win	2020-04-15	19:45:47	1	1	1	USRTblock	1	USRT	80	600000	#ff0000	10pct	1	50pct	50pct	6000	414760	420771	414505	57	421052	281	0	0	78
6.1.1	win	2020-04-15	19:45:47	1	1	1	USRTblock	1	USRT	81	600000	#ff0000	10pct	1	50pct	50pct	7000	421056	428070	420771	57	428373	303	0	0	79
6.1.1	win	2020-04-15	19:45:47	1	1	1	USRTblock	1	USRT	82	600000	#ff0000	10pct	1	50pct	50pct	7000	428377	435386	428070	57	435726	340	0	0	80
6.1.1	win	2020-04-15	19:45:47	1	1	1	USRTblock	1	USRT	83	600000	#ff0000	10pct	1	50pct	50pct	7000	435729	442735	435386	57	443140	405	0	0	81
6.1.1	win	2020-04-15	19:45:47	1	1	1	USRTblock	1	USRT	84	600000	#ff0000	10pct	1	50pct	50pct	7000	443144	450151	442735	57	450412	261	0	0	82
6.1.1	win	2020-04-15	19:45:47	1	1	1	USRTblock	1	USRT	85	600000	#ff0000	10pct	1	50pct	50pct	6000	450416	456434	450151	57	456673	239	0	0	83
6.1.1	win	2020-04-15	19:45:47	1	1	1	USRTblock	1	USRT	86	600000	#ff0000	10pct	1	50pct	50pct	3000	456677	459683	456434	57	460013	330	0	0	84
6.1.1	win	2020-04-15	19:45:47	1	1	1	USRTblock	1	USRT	87	600000	#ff0000	10pct	1	50pct	50pct	3000	460017	463033	459683	57	463379	346	0	0	85
6.1.1	win	2020-04-15	19:45:47	1	1	1	USRTblock	1	USRT	88	600000	#ff0000	10pct	1	50pct	50pct	7000	463382	470399	463033	57	470664	265	0	0	86
6.1.1	win	2020-04-15	19:45:47	1	1	1	USRTblock	1	USRT	89	600000	#ff0000	10pct	1	50pct	50pct	2000	470667	472682	470399	57	473072	390	0	0	87
6.1.1	win	2020-04-15	19:45:47	1	1	1	USRTblock	1	USRT	90	600000	#ff0000	10pct	1	50pct	50pct	5000	473075	478081	472682	57	478349	268	0	0	88
6.1.1	win	2020-04-15	19:45:47	1	1	1	USRTblock	1	USRT	91	600000	#ff0000	10pct	1	50pct	50pct	3000	478352	481365	478081	57	481633	268	0	0	89
6.1.1	win	2020-04-15	19:45:47	1	1	1	USRTblock	1	USRT	92	600000	#ff0000	10pct	1	50pct	50pct	4000	481636	485647	481365	57	485922	275	0	0	90
6.1.1	win	2020-04-15	19:45:47	1	1	1	USRTblock	1	USRT	93	600000	#ff0000	10pct	1	50pct	50pct	2000	485927	487947	485647	57	488310	363	0	0	91
6.1.1	win	2020-04-15	19:45:47	1	1	1	USRTblock	1	USRT	94	600000	#ff0000	10pct	1	50pct	50pct	5000	488313	493330	487947	57	493636	306	0	0	92
6.1.1	win	2020-04-15	19:45:47	1	1	1	USRTblock	1	USRT	95	600000	#ff0000	10pct	1	50pct	50pct	8000	493639	501646	493330	57	501907	261	0	0	93
6.1.1	win	2020-04-15	19:45:47	1	1	1	USRTblock	1	USRT	96	600000	#ff0000	10pct	1	50pct	50pct	7000	501911	508929	501646	57	509209	280	0	0	94
6.1.1	win	2020-04-15	19:45:47	1	1	1	USRTblock	1	USRT	97	600000	#ff0000	10pct	1	50pct	50pct	2000	509213	511228	508929	57	511562	334	0	0	95
6.1.1	win	2020-04-15	19:45:47	1	1	1	USRTblock	1	USRT	98	600000	#ff0000	10pct	1	50pct	50pct	6000	511565	517578	511228	57	517913	335	0	0	96
6.1.1	win	2020-04-15	19:45:47	1	1	1	USRTblock	1	USRT	99	600000	#ff0000	10pct	1	50pct	50pct	5000	517916	522927	517578	57	523279	352	0	0	97
6.1.1	win	2020-04-15	19:45:47	1	1	1	USRTblock	1	USRT	100	600000	#ff0000	10pct	1	50pct	50pct	6000	523283	529293	522927	57	529559	266	0	0	98
6.1.1	win	2020-04-15	19:45:47	1	1	1	USRTblock	1	USRT	101	600000	#ff0000	10pct	1	50pct	50pct	8000	529563	537576	529293	57	537853	277	0	0	99
6.1.1	win	2020-04-15	19:45:47	1	1	1	USRTblock	1	USRT	102	600000	#ff0000	10pct	1	50pct	50pct	4000	537856	541875	537576	57	542176	301	0	0	100
6.1.1	win	2020-04-15	19:45:47	1	1	1	USRTblock	1	USRT	103	600000	#ff0000	10pct	1	50pct	50pct	4000	542180	546191	541875	57	546436	245	0	0	101
6.1.1	win	2020-04-15	19:45:47	1	1	1	USRTblock	1	USRT	104	600000	#ff0000	10pct	1	50pct	50pct	5000	546439	551458	546191	57	551749	291	0	0	102
6.1.1	win	2020-04-15	19:45:47	1	1	1	USRTblock	1	USRT	105	600000	#ff0000	10pct	1	50pct	50pct	5000	551752	556757	551458	57	556995	238	0	0	103
6.1.1	win	2020-04-15	19:45:47	1	1	1	USRTblock	1	USRT	106	600000	#ff0000	10pct	1	50pct	50pct	4000	556999	561006	556757	57	561309	303	0	0	104
6.1.1	win	2020-04-15	19:45:47	1	1	1	USRTblock	1	USRT	107	600000	#ff0000	10pct	1	50pct	50pct	2000	561313	563323	561006	57	563701	378	0	0	105
6.1.1	win	2020-04-15	19:45:47	1	1	1	USRTblock	1	USRT	108	600000	#ff0000	10pct	1	50pct	50pct	2000	563704	565723	563323	57	566060	337	0	0	106
6.1.1	win	2020-04-15	19:45:47	1	1	1	USRTblock	1	USRT	109	600000	#ff0000	10pct	1	50pct	50pct	4000	566063	570072	565723	57	570397	325	0	0	107
6.1.1	win	2020-04-15	19:45:47	1	1	1	USRTblock	1	USRT	110	600000	#ff0000	10pct	1	50pct	50pct	3000	570400	573406	570072	57	573725	319	0	0	108
6.1.1	win	2020-04-15	19:45:47	1	1	1	USRTblock	1	USRT	111	600000	#ff0000	10pct	1	50pct	50pct	8000	573729	581738	573406	57	582032	294	0	0	109
6.1.1	win	2020-04-15	19:45:47	1	1	1	USRTblock	1	USRT	112	600000	#ff0000	10pct	1	50pct	50pct	8000	582036	590054	581738	57	590454	400	0	0	110
6.1.1	win	2020-04-15	19:45:47	1	1	1	USRTblock	1	USRT	113	600000	#ff0000	10pct	1	50pct	50pct	6000	590458	596470	590054	57	596768	298	0	0	111
6.1.1	win	2020-04-15	19:45:47	1	1	1	USRTblock	1	USRT	114	600000	#ff0000	10pct	1	50pct	50pct	5000	596771	-1	596470	0	596853	0	1	1	112
