build	computer.platform	date	time	subject	group	sessionid	blockcode	blocknum	trialcode	trialnum	testduration	targetcolor	targetsize	fixed	targetx	targety	stiminterval	trialStart	shape.targetcircle.timestamp	lastCircleTimestamp	response	rt_elapsed	rt	EarlyResponse	countEarlyResponses	countResponses
6.1.1	win	2020-04-15	13:23:19	1	1	1	USRTblock	1	USRT	3	600000	#ff0000	10pct	1	50pct	50pct	6000	3159	9170	2434	57	9426	256	0	0	1
6.1.1	win	2020-04-15	13:23:19	1	1	1	USRTblock	1	USRT	4	600000	#ff0000	10pct	1	50pct	50pct	8000	9438	17454	9170	57	17699	245	0	0	2
6.1.1	win	2020-04-15	13:23:19	1	1	1	USRTblock	1	USRT	5	600000	#ff0000	10pct	1	50pct	50pct	7000	17702	24719	17454	57	24973	254	0	0	3
6.1.1	win	2020-04-15	13:23:19	1	1	1	USRTblock	1	USRT	6	600000	#ff0000	10pct	1	50pct	50pct	3000	24976	27985	24719	57	28256	271	0	0	4
6.1.1	win	2020-04-15	13:23:19	1	1	1	USRTblock	1	USRT	7	600000	#ff0000	10pct	1	50pct	50pct	5000	28261	33284	27985	57	33550	266	0	0	5
6.1.1	win	2020-04-15	13:23:19	1	1	1	USRTblock	1	USRT	8	600000	#ff0000	10pct	1	50pct	50pct	7000	33554	40568	33284	57	40867	299	0	0	6
6.1.1	win	2020-04-15	13:23:19	1	1	1	USRTblock	1	USRT	9	600000	#ff0000	10pct	1	50pct	50pct	6000	40870	46883	40568	57	47138	255	0	0	7
6.1.1	win	2020-04-15	13:23:19	1	1	1	USRTblock	1	USRT	10	600000	#ff0000	10pct	1	50pct	50pct	7000	47141	54149	46883	57	54494	345	0	0	8
6.1.1	win	2020-04-15	13:23:19	1	1	1	USRTblock	1	USRT	11	600000	#ff0000	10pct	1	50pct	50pct	8000	54497	62515	54149	57	62798	283	0	0	9
6.1.1	win	2020-04-15	13:23:19	1	1	1	USRTblock	1	USRT	12	600000	#ff0000	10pct	1	50pct	50pct	4000	62802	66815	62515	57	67128	313	0	0	10
6.1.1	win	2020-04-15	13:23:19	1	1	1	USRTblock	1	USRT	13	600000	#ff0000	10pct	1	50pct	50pct	4000	67132	71148	66815	57	71426	278	0	0	11
6.1.1	win	2020-04-15	13:23:19	1	1	1	USRTblock	1	USRT	14	600000	#ff0000	10pct	1	50pct	50pct	3000	71430	74447	71148	57	74859	412	0	0	12
6.1.1	win	2020-04-15	13:23:19	1	1	1	USRTblock	1	USRT	15	600000	#ff0000	10pct	1	50pct	50pct	2000	74863	76880	74447	57	77166	286	0	0	13
6.1.1	win	2020-04-15	13:23:19	1	1	1	USRTblock	1	USRT	16	600000	#ff0000	10pct	1	50pct	50pct	7000	77169	84180	76880	57	84470	290	0	0	14
6.1.1	win	2020-04-15	13:23:19	1	1	1	USRTblock	1	USRT	17	600000	#ff0000	10pct	1	50pct	50pct	6000	84474	90479	84180	57	90761	282	0	0	15
6.1.1	win	2020-04-15	13:23:19	1	1	1	USRTblock	1	USRT	18	600000	#ff0000	10pct	1	50pct	50pct	2000	90765	92778	90479	57	93159	381	0	0	16
6.1.1	win	2020-04-15	13:23:19	1	1	1	USRTblock	1	USRT	19	600000	#ff0000	10pct	1	50pct	50pct	7000	93162	100178	92778	57	100498	320	0	0	17
6.1.1	win	2020-04-15	13:23:19	1	1	1	USRTblock	1	USRT	20	600000	#ff0000	10pct	1	50pct	50pct	3000	100501	103511	100178	57	103831	320	0	0	18
6.1.1	win	2020-04-15	13:23:19	1	1	1	USRTblock	1	USRT	21	600000	#ff0000	10pct	1	50pct	50pct	8000	103836	111844	103511	57	112137	293	0	0	19
6.1.1	win	2020-04-15	13:23:19	1	1	1	USRTblock	1	USRT	22	600000	#ff0000	10pct	1	50pct	50pct	5000	112140	117160	111844	57	117443	283	0	0	20
6.1.1	win	2020-04-15	13:23:19	1	1	1	USRTblock	1	USRT	23	600000	#ff0000	10pct	1	50pct	50pct	7000	117446	124459	117160	57	124739	280	0	0	21
6.1.1	win	2020-04-15	13:23:19	1	1	1	USRTblock	1	USRT	24	600000	#ff0000	10pct	1	50pct	50pct	6000	124742	130758	124459	57	131012	254	0	0	22
6.1.1	win	2020-04-15	13:23:19	1	1	1	USRTblock	1	USRT	25	600000	#ff0000	10pct	1	50pct	50pct	3000	131015	134024	130758	57	134507	483	0	0	23
6.1.1	win	2020-04-15	13:23:19	1	1	1	USRTblock	1	USRT	26	600000	#ff0000	10pct	1	50pct	50pct	3000	134510	137524	134024	57	137860	336	0	0	24
6.1.1	win	2020-04-15	13:23:19	1	1	1	USRTblock	1	USRT	27	600000	#ff0000	10pct	1	50pct	50pct	7000	137864	144874	137524	57	145148	274	0	0	25
6.1.1	win	2020-04-15	13:23:19	1	1	1	USRTblock	1	USRT	28	600000	#ff0000	10pct	1	50pct	50pct	2000	145152	147156	144874	57	147518	362	0	0	26
6.1.1	win	2020-04-15	13:23:19	1	1	1	USRTblock	1	USRT	29	600000	#ff0000	10pct	1	50pct	50pct	2000	147521	149539	147156	57	149853	314	0	0	27
6.1.1	win	2020-04-15	13:23:19	1	1	1	USRTblock	1	USRT	30	600000	#ff0000	10pct	1	50pct	50pct	4000	149856	153872	149539	57	154141	269	0	0	28
6.1.1	win	2020-04-15	13:23:19	1	1	1	USRTblock	1	USRT	31	600000	#ff0000	10pct	1	50pct	50pct	5000	154144	159156	153872	57	159490	334	0	0	29
6.1.1	win	2020-04-15	13:23:19	1	1	1	USRTblock	1	USRT	32	600000	#ff0000	10pct	1	50pct	50pct	3000	159494	162505	159156	57	163080	575	0	0	30
6.1.1	win	2020-04-15	13:23:19	1	1	1	USRTblock	1	USRT	33	600000	#ff0000	10pct	1	50pct	50pct	3000	163084	166104	162505	57	166486	382	0	0	31
6.1.1	win	2020-04-15	13:23:19	1	1	1	USRTblock	1	USRT	34	600000	#ff0000	10pct	1	50pct	50pct	4000	166490	170504	166104	57	170814	310	0	0	32
6.1.1	win	2020-04-15	13:23:19	1	1	1	USRTblock	1	USRT	35	600000	#ff0000	10pct	1	50pct	50pct	6000	170818	176837	170504	57	177129	292	0	0	33
6.1.1	win	2020-04-15	13:23:19	1	1	1	USRTblock	1	USRT	36	600000	#ff0000	10pct	1	50pct	50pct	8000	177134	185153	176837	57	185448	295	0	0	34
6.1.1	win	2020-04-15	13:23:19	1	1	1	USRTblock	1	USRT	37	600000	#ff0000	10pct	1	50pct	50pct	2000	185453	187469	185153	57	187771	302	0	0	35
6.1.1	win	2020-04-15	13:23:19	1	1	1	USRTblock	1	USRT	38	600000	#ff0000	10pct	1	50pct	50pct	8000	187774	195785	187469	57	196010	225	0	0	36
6.1.1	win	2020-04-15	13:23:19	1	1	1	USRTblock	1	USRT	39	600000	#ff0000	10pct	1	50pct	50pct	2000	196014	198035	195785	57	198304	269	0	0	37
6.1.1	win	2020-04-15	13:23:19	1	1	1	USRTblock	1	USRT	40	600000	#ff0000	10pct	1	50pct	50pct	5000	198308	203318	198035	57	203564	246	0	0	38
6.1.1	win	2020-04-15	13:23:19	1	1	1	USRTblock	1	USRT	41	600000	#ff0000	10pct	1	50pct	50pct	5000	203568	208584	203318	57	208829	245	0	0	39
6.1.1	win	2020-04-15	13:23:19	1	1	1	USRTblock	1	USRT	42	600000	#ff0000	10pct	1	50pct	50pct	5000	208832	213850	208584	57	214117	267	0	0	40
6.1.1	win	2020-04-15	13:23:19	1	1	1	USRTblock	1	USRT	43	600000	#ff0000	10pct	1	50pct	50pct	6000	214120	220133	213850	57	220401	268	0	0	41
6.1.1	win	2020-04-15	13:23:19	1	1	1	USRTblock	1	USRT	44	600000	#ff0000	10pct	1	50pct	50pct	4000	220404	224416	220133	57	224722	306	0	0	42
6.1.1	win	2020-04-15	13:23:19	1	1	1	USRTblock	1	USRT	45	600000	#ff0000	10pct	1	50pct	50pct	2000	224726	226748	224416	57	227168	420	0	0	43
6.1.1	win	2020-04-15	13:23:19	1	1	1	USRTblock	1	USRT	46	600000	#ff0000	10pct	1	50pct	50pct	4000	227171	231181	226748	57	231460	279	0	0	44
6.1.1	win	2020-04-15	13:23:19	1	1	1	USRTblock	1	USRT	47	600000	#ff0000	10pct	1	50pct	50pct	2000	231463	233481	231181	57	233864	383	0	0	45
6.1.1	win	2020-04-15	13:23:19	1	1	1	USRTblock	1	USRT	48	600000	#ff0000	10pct	1	50pct	50pct	2000	233868	235881	233481	57	236401	520	0	0	46
6.1.1	win	2020-04-15	13:23:19	1	1	1	USRTblock	1	USRT	49	600000	#ff0000	10pct	1	50pct	50pct	2000	236404	238414	235881	57	238748	334	0	0	47
6.1.1	win	2020-04-15	13:23:19	1	1	1	USRTblock	1	USRT	50	600000	#ff0000	10pct	1	50pct	50pct	4000	238751	242764	238414	57	243009	245	0	0	48
6.1.1	win	2020-04-15	13:23:19	1	1	1	USRTblock	1	USRT	51	600000	#ff0000	10pct	1	50pct	50pct	4000	243012	247030	242764	57	247351	321	0	0	49
6.1.1	win	2020-04-15	13:23:19	1	1	1	USRTblock	1	USRT	52	600000	#ff0000	10pct	1	50pct	50pct	5000	247354	252362	247030	57	252821	459	0	0	50
6.1.1	win	2020-04-15	13:23:19	1	1	1	USRTblock	1	USRT	53	600000	#ff0000	10pct	1	50pct	50pct	5000	252824	-1	252362	57	254842	0	1	1	51
6.1.1	win	2020-04-15	13:23:19	1	1	1	USRTblock	1	USRT	54	600000	#ff0000	10pct	1	50pct	50pct	8000	254847	-1	-1	57	255034	0	1	2	52
6.1.1	win	2020-04-15	13:23:19	1	1	1	USRTblock	1	USRT	55	600000	#ff0000	10pct	1	50pct	50pct	5000	255037	260046	-1	57	260313	267	0	2	53
6.1.1	win	2020-04-15	13:23:19	1	1	1	USRTblock	1	USRT	56	600000	#ff0000	10pct	1	50pct	50pct	8000	260316	268328	260046	57	268565	237	0	2	54
6.1.1	win	2020-04-15	13:23:19	1	1	1	USRTblock	1	USRT	57	600000	#ff0000	10pct	1	50pct	50pct	8000	268569	276577	268328	57	276915	338	0	2	55
6.1.1	win	2020-04-15	13:23:19	1	1	1	USRTblock	1	USRT	58	600000	#ff0000	10pct	1	50pct	50pct	2000	276918	278927	276577	57	279302	375	0	2	56
6.1.1	win	2020-04-15	13:23:19	1	1	1	USRTblock	1	USRT	59	600000	#ff0000	10pct	1	50pct	50pct	2000	279305	281327	278927	57	281609	282	0	2	57
6.1.1	win	2020-04-15	13:23:19	1	1	1	USRTblock	1	USRT	60	600000	#ff0000	10pct	1	50pct	50pct	2000	281612	283626	281327	57	283935	309	0	2	58
6.1.1	win	2020-04-15	13:23:19	1	1	1	USRTblock	1	USRT	61	600000	#ff0000	10pct	1	50pct	50pct	6000	283939	289959	283626	57	290197	238	0	2	59
6.1.1	win	2020-04-15	13:23:19	1	1	1	USRTblock	1	USRT	62	600000	#ff0000	10pct	1	50pct	50pct	8000	290201	298208	289959	57	298448	240	0	2	60
6.1.1	win	2020-04-15	13:23:19	1	1	1	USRTblock	1	USRT	63	600000	#ff0000	10pct	1	50pct	50pct	7000	298451	305458	298208	57	305713	255	0	2	61
6.1.1	win	2020-04-15	13:23:19	1	1	1	USRTblock	1	USRT	64	600000	#ff0000	10pct	1	50pct	50pct	7000	305717	312723	305458	57	312969	246	0	2	62
6.1.1	win	2020-04-15	13:23:19	1	1	1	USRTblock	1	USRT	65	600000	#ff0000	10pct	1	50pct	50pct	8000	312973	320989	312723	57	321244	255	0	2	63
6.1.1	win	2020-04-15	13:23:19	1	1	1	USRTblock	1	USRT	66	600000	#ff0000	10pct	1	50pct	50pct	7000	321249	328272	320989	57	328540	268	0	2	64
6.1.1	win	2020-04-15	13:23:19	1	1	1	USRTblock	1	USRT	67	600000	#ff0000	10pct	1	50pct	50pct	5000	328543	333554	328272	57	333838	284	0	2	65
6.1.1	win	2020-04-15	13:23:19	1	1	1	USRTblock	1	USRT	68	600000	#ff0000	10pct	1	50pct	50pct	5000	333842	338854	333554	57	339105	251	0	2	66
6.1.1	win	2020-04-15	13:23:19	1	1	1	USRTblock	1	USRT	69	600000	#ff0000	10pct	1	50pct	50pct	7000	339108	346120	338854	57	346350	230	0	2	67
6.1.1	win	2020-04-15	13:23:19	1	1	1	USRTblock	1	USRT	70	600000	#ff0000	10pct	1	50pct	50pct	6000	346354	352370	346120	57	352636	266	0	2	68
6.1.1	win	2020-04-15	13:23:19	1	1	1	USRTblock	1	USRT	71	600000	#ff0000	10pct	1	50pct	50pct	4000	352639	356652	352370	57	356949	297	0	2	69
6.1.1	win	2020-04-15	13:23:19	1	1	1	USRTblock	1	USRT	72	600000	#ff0000	10pct	1	50pct	50pct	2000	356953	358968	356652	57	359223	255	0	2	70
6.1.1	win	2020-04-15	13:23:19	1	1	1	USRTblock	1	USRT	73	600000	#ff0000	10pct	1	50pct	50pct	8000	359227	367234	358968	57	367507	273	0	2	71
6.1.1	win	2020-04-15	13:23:19	1	1	1	USRTblock	1	USRT	74	600000	#ff0000	10pct	1	50pct	50pct	2000	367511	369517	367234	57	369781	264	0	2	72
6.1.1	win	2020-04-15	13:23:19	1	1	1	USRTblock	1	USRT	75	600000	#ff0000	10pct	1	50pct	50pct	6000	369785	375800	369517	57	376086	286	0	2	73
6.1.1	win	2020-04-15	13:23:19	1	1	1	USRTblock	1	USRT	76	600000	#ff0000	10pct	1	50pct	50pct	3000	376090	379100	375800	57	379360	260	0	2	74
6.1.1	win	2020-04-15	13:23:19	1	1	1	USRTblock	1	USRT	77	600000	#ff0000	10pct	1	50pct	50pct	5000	379365	384383	379100	57	384651	268	0	2	75
6.1.1	win	2020-04-15	13:23:19	1	1	1	USRTblock	1	USRT	78	600000	#ff0000	10pct	1	50pct	50pct	8000	384655	392666	384383	57	392929	263	0	2	76
6.1.1	win	2020-04-15	13:23:19	1	1	1	USRTblock	1	USRT	79	600000	#ff0000	10pct	1	50pct	50pct	3000	392932	395948	392666	57	396218	270	0	2	77
6.1.1	win	2020-04-15	13:23:19	1	1	1	USRTblock	1	USRT	80	600000	#ff0000	10pct	1	50pct	50pct	4000	396222	400231	395948	57	400495	264	0	2	78
6.1.1	win	2020-04-15	13:23:19	1	1	1	USRTblock	1	USRT	81	600000	#ff0000	10pct	1	50pct	50pct	8000	400499	408514	400231	57	408780	266	0	2	79
6.1.1	win	2020-04-15	13:23:19	1	1	1	USRTblock	1	USRT	82	600000	#ff0000	10pct	1	50pct	50pct	4000	408783	412797	408514	57	413111	314	0	2	80
6.1.1	win	2020-04-15	13:23:19	1	1	1	USRTblock	1	USRT	83	600000	#ff0000	10pct	1	50pct	50pct	2000	413115	415129	412797	57	415387	258	0	2	81
6.1.1	win	2020-04-15	13:23:19	1	1	1	USRTblock	1	USRT	84	600000	#ff0000	10pct	1	50pct	50pct	8000	415391	423397	415129	57	423638	241	0	2	82
6.1.1	win	2020-04-15	13:23:19	1	1	1	USRTblock	1	USRT	85	600000	#ff0000	10pct	1	50pct	50pct	3000	423643	426662	423397	57	426974	312	0	2	83
6.1.1	win	2020-04-15	13:23:19	1	1	1	USRTblock	1	USRT	86	600000	#ff0000	10pct	1	50pct	50pct	6000	426979	432994	426662	57	433289	295	0	2	84
6.1.1	win	2020-04-15	13:23:19	1	1	1	USRTblock	1	USRT	87	600000	#ff0000	10pct	1	50pct	50pct	6000	433293	439311	432994	57	439907	596	0	2	85
6.1.1	win	2020-04-15	13:23:19	1	1	1	USRTblock	1	USRT	88	600000	#ff0000	10pct	1	50pct	50pct	2000	439911	441927	439311	57	442206	279	0	2	86
6.1.1	win	2020-04-15	13:23:19	1	1	1	USRTblock	1	USRT	89	600000	#ff0000	10pct	1	50pct	50pct	2000	442210	444226	441927	57	444476	250	0	2	87
6.1.1	win	2020-04-15	13:23:19	1	1	1	USRTblock	1	USRT	90	600000	#ff0000	10pct	1	50pct	50pct	3000	444480	447493	444226	57	447840	347	0	2	88
6.1.1	win	2020-04-15	13:23:19	1	1	1	USRTblock	1	USRT	91	600000	#ff0000	10pct	1	50pct	50pct	6000	447844	453859	447493	57	454269	410	0	2	89
6.1.1	win	2020-04-15	13:23:19	1	1	1	USRTblock	1	USRT	92	600000	#ff0000	10pct	1	50pct	50pct	3000	454272	457292	453859	57	457592	300	0	2	90
6.1.1	win	2020-04-15	13:23:19	1	1	1	USRTblock	1	USRT	93	600000	#ff0000	10pct	1	50pct	50pct	6000	457596	463609	457292	57	463910	301	0	2	91
6.1.1	win	2020-04-15	13:23:19	1	1	1	USRTblock	1	USRT	94	600000	#ff0000	10pct	1	50pct	50pct	6000	463914	469924	463609	57	470315	391	0	2	92
6.1.1	win	2020-04-15	13:23:19	1	1	1	USRTblock	1	USRT	95	600000	#ff0000	10pct	1	50pct	50pct	6000	470319	476324	469924	57	476706	382	0	2	93
6.1.1	win	2020-04-15	13:23:19	1	1	1	USRTblock	1	USRT	96	600000	#ff0000	10pct	1	50pct	50pct	2000	476710	478723	476324	57	479154	431	0	2	94
6.1.1	win	2020-04-15	13:23:19	1	1	1	USRTblock	1	USRT	97	600000	#ff0000	10pct	1	50pct	50pct	3000	479158	482172	478723	57	482582	410	0	2	95
6.1.1	win	2020-04-15	13:23:19	1	1	1	USRTblock	1	USRT	98	600000	#ff0000	10pct	1	50pct	50pct	5000	482586	487606	482172	57	488191	585	0	2	96
6.1.1	win	2020-04-15	13:23:19	1	1	1	USRTblock	1	USRT	99	600000	#ff0000	10pct	1	50pct	50pct	5000	488195	493205	487606	57	493500	295	0	2	97
6.1.1	win	2020-04-15	13:23:19	1	1	1	USRTblock	1	USRT	100	600000	#ff0000	10pct	1	50pct	50pct	5000	493504	498522	493205	57	498802	280	0	2	98
6.1.1	win	2020-04-15	13:23:19	1	1	1	USRTblock	1	USRT	101	600000	#ff0000	10pct	1	50pct	50pct	6000	498806	504821	498522	57	505108	287	0	2	99
6.1.1	win	2020-04-15	13:23:19	1	1	1	USRTblock	1	USRT	102	600000	#ff0000	10pct	1	50pct	50pct	3000	505111	508120	504821	57	508534	414	0	2	100
6.1.1	win	2020-04-15	13:23:19	1	1	1	USRTblock	1	USRT	103	600000	#ff0000	10pct	1	50pct	50pct	4000	508538	512553	508120	57	512990	437	0	2	101
6.1.1	win	2020-04-15	13:23:19	1	1	1	USRTblock	1	USRT	104	600000	#ff0000	10pct	1	50pct	50pct	3000	512993	516003	512553	57	516394	391	0	2	102
6.1.1	win	2020-04-15	13:23:19	1	1	1	USRTblock	1	USRT	105	600000	#ff0000	10pct	1	50pct	50pct	4000	516399	520419	516003	57	520708	289	0	2	103
6.1.1	win	2020-04-15	13:23:19	1	1	1	USRTblock	1	USRT	106	600000	#ff0000	10pct	1	50pct	50pct	8000	520711	528719	520419	57	529053	334	0	2	104
6.1.1	win	2020-04-15	13:23:19	1	1	1	USRTblock	1	USRT	107	600000	#ff0000	10pct	1	50pct	50pct	2000	529057	531068	528719	57	531419	351	0	2	105
6.1.1	win	2020-04-15	13:23:19	1	1	1	USRTblock	1	USRT	108	600000	#ff0000	10pct	1	50pct	50pct	7000	531423	538434	531068	57	538722	288	0	2	106
6.1.1	win	2020-04-15	13:23:19	1	1	1	USRTblock	1	USRT	109	600000	#ff0000	10pct	1	50pct	50pct	8000	538725	546733	538434	57	547431	698	0	2	107
6.1.1	win	2020-04-15	13:23:19	1	1	1	USRTblock	1	USRT	110	600000	#ff0000	10pct	1	50pct	50pct	4000	547435	551449	546733	57	551781	332	0	2	108
6.1.1	win	2020-04-15	13:23:19	1	1	1	USRTblock	1	USRT	111	600000	#ff0000	10pct	1	50pct	50pct	8000	551785	559799	551449	57	560095	296	0	2	109
6.1.1	win	2020-04-15	13:23:19	1	1	1	USRTblock	1	USRT	112	600000	#ff0000	10pct	1	50pct	50pct	2000	560099	562115	559799	57	562385	270	0	2	110
6.1.1	win	2020-04-15	13:23:19	1	1	1	USRTblock	1	USRT	113	600000	#ff0000	10pct	1	50pct	50pct	4000	562389	566398	562115	57	566727	329	0	2	111
6.1.1	win	2020-04-15	13:23:19	1	1	1	USRTblock	1	USRT	114	600000	#ff0000	10pct	1	50pct	50pct	7000	566731	573747	566398	57	574143	396	0	2	112
6.1.1	win	2020-04-15	13:23:19	1	1	1	USRTblock	1	USRT	115	600000	#ff0000	10pct	1	50pct	50pct	6000	574147	580163	573747	57	580439	276	0	2	113
6.1.1	win	2020-04-15	13:23:19	1	1	1	USRTblock	1	USRT	116	600000	#ff0000	10pct	1	50pct	50pct	4000	580442	584463	580163	57	584916	453	0	2	114
6.1.1	win	2020-04-15	13:23:19	1	1	1	USRTblock	1	USRT	117	600000	#ff0000	10pct	1	50pct	50pct	3000	584920	587928	584463	57	588240	312	0	2	115
6.1.1	win	2020-04-15	13:23:19	1	1	1	USRTblock	1	USRT	118	600000	#ff0000	10pct	1	50pct	50pct	5000	588244	593262	587928	57	593511	249	0	2	116
6.1.1	win	2020-04-15	13:23:19	1	1	1	USRTblock	1	USRT	119	600000	#ff0000	10pct	1	50pct	50pct	7000	593515	600528	593262	57	600798	270	0	2	117
6.1.1	win	2020-04-15	13:23:19	1	1	1	USRTblock	1	USRT	120	600000	#ff0000	10pct	1	50pct	50pct	6000	600802	-1	600528	0	600899	0	1	3	118
