build	computer.platform	date	time	subject	group	sessionid	blockcode	blocknum	trialcode	trialnum	testduration	targetcolor	targetsize	fixed	targetx	targety	stiminterval	trialStart	shape.targetcircle.timestamp	lastCircleTimestamp	response	rt_elapsed	rt	EarlyResponse	countEarlyResponses	countResponses
6.1.1	win	2020-04-15	22:55:20	1	1	1	USRTblock	1	USRT	3	600000	#ff0000	10pct	1	50pct	50pct	2000	2947	4951	2115	57	5205	254	0	0	1
6.1.1	win	2020-04-15	22:55:20	1	1	1	USRTblock	1	USRT	4	600000	#ff0000	10pct	1	50pct	50pct	4000	5246	9251	4951	57	9492	241	0	0	2
6.1.1	win	2020-04-15	22:55:20	1	1	1	USRTblock	1	USRT	5	600000	#ff0000	10pct	1	50pct	50pct	4000	9497	13518	9251	57	13737	219	0	0	3
6.1.1	win	2020-04-15	22:55:20	1	1	1	USRTblock	1	USRT	6	600000	#ff0000	10pct	1	50pct	50pct	6000	13742	19751	13518	57	19994	243	0	0	4
6.1.1	win	2020-04-15	22:55:20	1	1	1	USRTblock	1	USRT	7	600000	#ff0000	10pct	1	50pct	50pct	3000	19997	23017	19751	57	23256	239	0	0	5
6.1.1	win	2020-04-15	22:55:20	1	1	1	USRTblock	1	USRT	8	600000	#ff0000	10pct	1	50pct	50pct	3000	23259	26266	23017	57	26526	260	0	0	6
6.1.1	win	2020-04-15	22:55:20	1	1	1	USRTblock	1	USRT	9	600000	#ff0000	10pct	1	50pct	50pct	7000	26530	33549	26266	57	33798	249	0	0	7
6.1.1	win	2020-04-15	22:55:20	1	1	1	USRTblock	1	USRT	10	600000	#ff0000	10pct	1	50pct	50pct	6000	33801	39815	33549	57	40080	265	0	0	8
6.1.1	win	2020-04-15	22:55:20	1	1	1	USRTblock	1	USRT	11	600000	#ff0000	10pct	1	50pct	50pct	6000	40083	46097	39815	57	46357	260	0	0	9
6.1.1	win	2020-04-15	22:55:20	1	1	1	USRTblock	1	USRT	12	600000	#ff0000	10pct	1	50pct	50pct	3000	46360	49380	46097	57	49639	259	0	0	10
6.1.1	win	2020-04-15	22:55:20	1	1	1	USRTblock	1	USRT	13	600000	#ff0000	10pct	1	50pct	50pct	3000	49643	52664	49380	57	52942	278	0	0	11
6.1.1	win	2020-04-15	22:55:20	1	1	1	USRTblock	1	USRT	14	600000	#ff0000	10pct	1	50pct	50pct	6000	52946	58963	52664	57	59261	298	0	0	12
6.1.1	win	2020-04-15	22:55:20	1	1	1	USRTblock	1	USRT	15	600000	#ff0000	10pct	1	50pct	50pct	2000	59264	61279	58963	57	61631	352	0	0	13
6.1.1	win	2020-04-15	22:55:20	1	1	1	USRTblock	1	USRT	16	600000	#ff0000	10pct	1	50pct	50pct	4000	61634	65645	61279	57	65913	268	0	0	14
6.1.1	win	2020-04-15	22:55:20	1	1	1	USRTblock	1	USRT	17	600000	#ff0000	10pct	1	50pct	50pct	8000	65916	73929	65645	57	74191	262	0	0	15
6.1.1	win	2020-04-15	22:55:20	1	1	1	USRTblock	1	USRT	18	600000	#ff0000	10pct	1	50pct	50pct	2000	74194	76211	73929	57	76555	344	0	0	16
6.1.1	win	2020-04-15	22:55:20	1	1	1	USRTblock	1	USRT	19	600000	#ff0000	10pct	1	50pct	50pct	4000	76558	80577	76211	57	80802	225	0	0	17
6.1.1	win	2020-04-15	22:55:20	1	1	1	USRTblock	1	USRT	20	600000	#ff0000	10pct	1	50pct	50pct	2000	80805	82810	80577	57	83147	337	0	0	18
6.1.1	win	2020-04-15	22:55:20	1	1	1	USRTblock	1	USRT	21	600000	#ff0000	10pct	1	50pct	50pct	3000	83151	86160	82810	57	86530	370	0	0	19
6.1.1	win	2020-04-15	22:55:20	1	1	1	USRTblock	1	USRT	22	600000	#ff0000	10pct	1	50pct	50pct	7000	86533	93542	86160	57	93800	258	0	0	20
6.1.1	win	2020-04-15	22:55:20	1	1	1	USRTblock	1	USRT	23	600000	#ff0000	10pct	1	50pct	50pct	7000	93803	100809	93542	57	101048	239	0	0	21
6.1.1	win	2020-04-15	22:55:20	1	1	1	USRTblock	1	USRT	24	600000	#ff0000	10pct	1	50pct	50pct	8000	101051	109058	100809	57	109322	264	0	0	22
6.1.1	win	2020-04-15	22:55:20	1	1	1	USRTblock	1	USRT	25	600000	#ff0000	10pct	1	50pct	50pct	8000	109325	117341	109058	57	117614	273	0	0	23
6.1.1	win	2020-04-15	22:55:20	1	1	1	USRTblock	1	USRT	26	600000	#ff0000	10pct	1	50pct	50pct	4000	117617	121624	117341	57	121922	298	0	0	24
6.1.1	win	2020-04-15	22:55:20	1	1	1	USRTblock	1	USRT	27	600000	#ff0000	10pct	1	50pct	50pct	6000	121925	127939	121624	57	128230	291	0	0	25
6.1.1	win	2020-04-15	22:55:20	1	1	1	USRTblock	1	USRT	28	600000	#ff0000	10pct	1	50pct	50pct	3000	128233	131239	127939	57	131624	385	0	0	26
6.1.1	win	2020-04-15	22:55:20	1	1	1	USRTblock	1	USRT	29	600000	#ff0000	10pct	1	50pct	50pct	2000	131628	133638	131239	57	134038	400	0	0	27
6.1.1	win	2020-04-15	22:55:20	1	1	1	USRTblock	1	USRT	30	600000	#ff0000	10pct	1	50pct	50pct	6000	134041	140054	133638	57	140334	280	0	0	28
6.1.1	win	2020-04-15	22:55:20	1	1	1	USRTblock	1	USRT	31	600000	#ff0000	10pct	1	50pct	50pct	7000	140337	147354	140054	57	147605	251	0	0	29
6.1.1	win	2020-04-15	22:55:20	1	1	1	USRTblock	1	USRT	32	600000	#ff0000	10pct	1	50pct	50pct	3000	147609	150620	147354	57	150925	305	0	0	30
6.1.1	win	2020-04-15	22:55:20	1	1	1	USRTblock	1	USRT	33	600000	#ff0000	10pct	1	50pct	50pct	6000	150928	156937	150620	57	157176	239	0	0	31
6.1.1	win	2020-04-15	22:55:20	1	1	1	USRTblock	1	USRT	34	600000	#ff0000	10pct	1	50pct	50pct	8000	157179	165186	156937	57	165438	252	0	0	32
6.1.1	win	2020-04-15	22:55:20	1	1	1	USRTblock	1	USRT	35	600000	#ff0000	10pct	1	50pct	50pct	8000	165441	173451	165186	57	173771	320	0	0	33
6.1.1	win	2020-04-15	22:55:20	1	1	1	USRTblock	1	USRT	36	600000	#ff0000	10pct	1	50pct	50pct	7000	173774	180784	173451	57	181076	292	0	0	34
6.1.1	win	2020-04-15	22:55:20	1	1	1	USRTblock	1	USRT	37	600000	#ff0000	10pct	1	50pct	50pct	8000	181079	189100	180784	57	189457	357	0	0	35
6.1.1	win	2020-04-15	22:55:20	1	1	1	USRTblock	1	USRT	38	600000	#ff0000	10pct	1	50pct	50pct	3000	189461	192466	189100	57	192758	292	0	0	36
6.1.1	win	2020-04-15	22:55:20	1	1	1	USRTblock	1	USRT	39	600000	#ff0000	10pct	1	50pct	50pct	7000	192762	199783	192466	57	200189	406	0	0	37
6.1.1	win	2020-04-15	22:55:20	1	1	1	USRTblock	1	USRT	40	600000	#ff0000	10pct	1	50pct	50pct	8000	200192	208198	199783	57	208527	329	0	0	38
6.1.1	win	2020-04-15	22:55:20	1	1	1	USRTblock	1	USRT	41	600000	#ff0000	10pct	1	50pct	50pct	6000	208530	214548	208198	57	214938	390	0	0	39
6.1.1	win	2020-04-15	22:55:20	1	1	1	USRTblock	1	USRT	42	600000	#ff0000	10pct	1	50pct	50pct	5000	214942	219947	214548	57	220356	409	0	0	40
6.1.1	win	2020-04-15	22:55:20	1	1	1	USRTblock	1	USRT	43	600000	#ff0000	10pct	1	50pct	50pct	2000	220359	222379	219947	57	222708	329	0	0	41
6.1.1	win	2020-04-15	22:55:20	1	1	1	USRTblock	1	USRT	44	600000	#ff0000	10pct	1	50pct	50pct	3000	222712	225729	222379	57	226011	282	0	0	42
6.1.1	win	2020-04-15	22:55:20	1	1	1	USRTblock	1	USRT	45	600000	#ff0000	10pct	1	50pct	50pct	5000	226015	231029	225729	57	231318	289	0	0	43
6.1.1	win	2020-04-15	22:55:20	1	1	1	USRTblock	1	USRT	46	600000	#ff0000	10pct	1	50pct	50pct	8000	231322	239328	231029	57	239588	260	0	0	44
6.1.1	win	2020-04-15	22:55:20	1	1	1	USRTblock	1	USRT	47	600000	#ff0000	10pct	1	50pct	50pct	3000	239591	242611	239328	57	242903	292	0	0	45
6.1.1	win	2020-04-15	22:55:20	1	1	1	USRTblock	1	USRT	48	600000	#ff0000	10pct	1	50pct	50pct	4000	242906	246910	242611	57	247190	280	0	0	46
6.1.1	win	2020-04-15	22:55:20	1	1	1	USRTblock	1	USRT	49	600000	#ff0000	10pct	1	50pct	50pct	4000	247193	251210	246910	57	251511	301	0	0	47
6.1.1	win	2020-04-15	22:55:20	1	1	1	USRTblock	1	USRT	50	600000	#ff0000	10pct	1	50pct	50pct	7000	251514	258526	251210	57	258808	282	0	0	48
6.1.1	win	2020-04-15	22:55:20	1	1	1	USRTblock	1	USRT	51	600000	#ff0000	10pct	1	50pct	50pct	5000	258811	263826	258526	57	264167	341	0	0	49
6.1.1	win	2020-04-15	22:55:20	1	1	1	USRTblock	1	USRT	52	600000	#ff0000	10pct	1	50pct	50pct	4000	264170	268175	263826	57	268480	305	0	0	50
6.1.1	win	2020-04-15	22:55:20	1	1	1	USRTblock	1	USRT	53	600000	#ff0000	10pct	1	50pct	50pct	3000	268484	271491	268175	57	271810	319	0	0	51
6.1.1	win	2020-04-15	22:55:20	1	1	1	USRTblock	1	USRT	54	600000	#ff0000	10pct	1	50pct	50pct	7000	271814	278824	271491	57	279152	328	0	0	52
6.1.1	win	2020-04-15	22:55:20	1	1	1	USRTblock	1	USRT	55	600000	#ff0000	10pct	1	50pct	50pct	7000	279156	286174	278824	57	286450	276	0	0	53
6.1.1	win	2020-04-15	22:55:20	1	1	1	USRTblock	1	USRT	56	600000	#ff0000	10pct	1	50pct	50pct	8000	286454	294473	286174	57	294836	363	0	0	54
6.1.1	win	2020-04-15	22:55:20	1	1	1	USRTblock	1	USRT	57	600000	#ff0000	10pct	1	50pct	50pct	5000	294840	299855	294473	57	300135	280	0	0	55
6.1.1	win	2020-04-15	22:55:20	1	1	1	USRTblock	1	USRT	58	600000	#ff0000	10pct	1	50pct	50pct	6000	300138	306155	299855	57	306446	291	0	0	56
6.1.1	win	2020-04-15	22:55:20	1	1	1	USRTblock	1	USRT	59	600000	#ff0000	10pct	1	50pct	50pct	4000	306450	310455	306155	57	310738	283	0	0	57
6.1.1	win	2020-04-15	22:55:20	1	1	1	USRTblock	1	USRT	60	600000	#ff0000	10pct	1	50pct	50pct	3000	310741	313754	310455	57	314065	311	0	0	58
6.1.1	win	2020-04-15	22:55:20	1	1	1	USRTblock	1	USRT	61	600000	#ff0000	10pct	1	50pct	50pct	4000	314068	318087	313754	57	318358	271	0	0	59
6.1.1	win	2020-04-15	22:55:20	1	1	1	USRTblock	1	USRT	62	600000	#ff0000	10pct	1	50pct	50pct	3000	318363	321369	318087	57	321778	409	0	0	60
6.1.1	win	2020-04-15	22:55:20	1	1	1	USRTblock	1	USRT	63	600000	#ff0000	10pct	1	50pct	50pct	6000	321781	327786	321369	57	328050	264	0	0	61
6.1.1	win	2020-04-15	22:55:20	1	1	1	USRTblock	1	USRT	64	600000	#ff0000	10pct	1	50pct	50pct	5000	328053	333069	327786	57	333379	310	0	0	62
6.1.1	win	2020-04-15	22:55:20	1	1	1	USRTblock	1	USRT	65	600000	#ff0000	10pct	1	50pct	50pct	5000	333382	338402	333069	57	338718	316	0	0	63
6.1.1	win	2020-04-15	22:55:20	1	1	1	USRTblock	1	USRT	66	600000	#ff0000	10pct	1	50pct	50pct	2000	338721	340734	338402	57	341136	402	0	0	64
6.1.1	win	2020-04-15	22:55:20	1	1	1	USRTblock	1	USRT	67	600000	#ff0000	10pct	1	50pct	50pct	8000	341139	349151	340734	57	349471	320	0	0	65
6.1.1	win	2020-04-15	22:55:20	1	1	1	USRTblock	1	USRT	68	600000	#ff0000	10pct	1	50pct	50pct	7000	349474	356483	349151	57	357264	781	0	0	66
6.1.1	win	2020-04-15	22:55:20	1	1	1	USRTblock	1	USRT	69	600000	#ff0000	10pct	1	50pct	50pct	5000	357268	362282	356483	57	362566	284	0	0	67
6.1.1	win	2020-04-15	22:55:20	1	1	1	USRTblock	1	USRT	70	600000	#ff0000	10pct	1	50pct	50pct	8000	362570	370582	362282	57	370933	351	0	0	68
6.1.1	win	2020-04-15	22:55:20	1	1	1	USRTblock	1	USRT	71	600000	#ff0000	10pct	1	50pct	50pct	5000	370936	375948	370582	57	376272	324	0	0	69
6.1.1	win	2020-04-15	22:55:20	1	1	1	USRTblock	1	USRT	72	600000	#ff0000	10pct	1	50pct	50pct	6000	376276	382280	375948	57	382608	328	0	0	70
6.1.1	win	2020-04-15	22:55:20	1	1	1	USRTblock	1	USRT	73	600000	#ff0000	10pct	1	50pct	50pct	8000	382611	390630	382280	57	390917	287	0	0	71
6.1.1	win	2020-04-15	22:55:20	1	1	1	USRTblock	1	USRT	74	600000	#ff0000	10pct	1	50pct	50pct	5000	390922	395929	390630	57	396196	267	0	0	72
6.1.1	win	2020-04-15	22:55:20	1	1	1	USRTblock	1	USRT	75	600000	#ff0000	10pct	1	50pct	50pct	2000	396200	398211	395929	57	398578	367	0	0	73
6.1.1	win	2020-04-15	22:55:20	1	1	1	USRTblock	1	USRT	76	600000	#ff0000	10pct	1	50pct	50pct	7000	398582	405595	398211	57	405907	312	0	0	74
6.1.1	win	2020-04-15	22:55:20	1	1	1	USRTblock	1	USRT	77	600000	#ff0000	10pct	1	50pct	50pct	7000	405911	412927	405595	57	413286	359	0	0	75
6.1.1	win	2020-04-15	22:55:20	1	1	1	USRTblock	1	USRT	78	600000	#ff0000	10pct	1	50pct	50pct	6000	413289	419293	412927	57	419597	304	0	0	76
6.1.1	win	2020-04-15	22:55:20	1	1	1	USRTblock	1	USRT	79	600000	#ff0000	10pct	1	50pct	50pct	7000	419600	426609	419293	57	426926	317	0	0	77
6.1.1	win	2020-04-15	22:55:20	1	1	1	USRTblock	1	USRT	80	600000	#ff0000	10pct	1	50pct	50pct	2000	426929	428942	426609	57	429437	495	0	0	78
6.1.1	win	2020-04-15	22:55:20	1	1	1	USRTblock	1	USRT	81	600000	#ff0000	10pct	1	50pct	50pct	6000	429440	435458	428942	57	435738	280	0	0	79
6.1.1	win	2020-04-15	22:55:20	1	1	1	USRTblock	1	USRT	82	600000	#ff0000	10pct	1	50pct	50pct	6000	435741	441758	435458	57	442037	279	0	0	80
6.1.1	win	2020-04-15	22:55:20	1	1	1	USRTblock	1	USRT	83	600000	#ff0000	10pct	1	50pct	50pct	6000	442041	448057	441758	57	448306	249	0	0	81
6.1.1	win	2020-04-15	22:55:20	1	1	1	USRTblock	1	USRT	84	600000	#ff0000	10pct	1	50pct	50pct	6000	448309	454323	448057	57	454604	281	0	0	82
6.1.1	win	2020-04-15	22:55:20	1	1	1	USRTblock	1	USRT	85	600000	#ff0000	10pct	1	50pct	50pct	6000	454607	460623	454323	57	460914	291	0	0	83
6.1.1	win	2020-04-15	22:55:20	1	1	1	USRTblock	1	USRT	86	600000	#ff0000	10pct	1	50pct	50pct	7000	460917	467922	460623	57	468171	249	0	0	84
6.1.1	win	2020-04-15	22:55:20	1	1	1	USRTblock	1	USRT	87	600000	#ff0000	10pct	1	50pct	50pct	6000	468176	474188	467922	57	474439	251	0	0	85
6.1.1	win	2020-04-15	22:55:20	1	1	1	USRTblock	1	USRT	88	600000	#ff0000	10pct	1	50pct	50pct	6000	474444	480454	474188	57	480728	274	0	0	86
6.1.1	win	2020-04-15	22:55:20	1	1	1	USRTblock	1	USRT	89	600000	#ff0000	10pct	1	50pct	50pct	4000	480731	484737	480454	57	485103	366	0	0	87
6.1.1	win	2020-04-15	22:55:20	1	1	1	USRTblock	1	USRT	90	600000	#ff0000	10pct	1	50pct	50pct	6000	485106	491120	484737	57	491378	258	0	0	88
6.1.1	win	2020-04-15	22:55:20	1	1	1	USRTblock	1	USRT	91	600000	#ff0000	10pct	1	50pct	50pct	6000	491381	497386	491120	57	497656	270	0	0	89
6.1.1	win	2020-04-15	22:55:20	1	1	1	USRTblock	1	USRT	92	600000	#ff0000	10pct	1	50pct	50pct	2000	497660	499668	497386	57	500086	418	0	0	90
6.1.1	win	2020-04-15	22:55:20	1	1	1	USRTblock	1	USRT	93	600000	#ff0000	10pct	1	50pct	50pct	7000	500089	507101	499668	57	507397	296	0	0	91
6.1.1	win	2020-04-15	22:55:20	1	1	1	USRTblock	1	USRT	94	600000	#ff0000	10pct	1	50pct	50pct	5000	507400	512417	507101	57	512668	251	0	0	92
6.1.1	win	2020-04-15	22:55:20	1	1	1	USRTblock	1	USRT	95	600000	#ff0000	10pct	1	50pct	50pct	4000	512671	516683	512417	57	516986	303	0	0	93
6.1.1	win	2020-04-15	22:55:20	1	1	1	USRTblock	1	USRT	96	600000	#ff0000	10pct	1	50pct	50pct	2000	516990	519000	516683	57	519307	307	0	0	94
6.1.1	win	2020-04-15	22:55:20	1	1	1	USRTblock	1	USRT	97	600000	#ff0000	10pct	1	50pct	50pct	6000	519312	525333	519000	57	525606	273	0	0	95
6.1.1	win	2020-04-15	22:55:20	1	1	1	USRTblock	1	USRT	98	600000	#ff0000	10pct	1	50pct	50pct	7000	525609	532616	525333	57	532904	288	0	0	96
6.1.1	win	2020-04-15	22:55:20	1	1	1	USRTblock	1	USRT	99	600000	#ff0000	10pct	1	50pct	50pct	4000	532907	536915	532616	57	537245	330	0	0	97
6.1.1	win	2020-04-15	22:55:20	1	1	1	USRTblock	1	USRT	100	600000	#ff0000	10pct	1	50pct	50pct	7000	537248	544264	536915	57	544602	338	0	0	98
6.1.1	win	2020-04-15	22:55:20	1	1	1	USRTblock	1	USRT	101	600000	#ff0000	10pct	1	50pct	50pct	7000	544605	551613	544264	57	551924	311	0	0	99
6.1.1	win	2020-04-15	22:55:20	1	1	1	USRTblock	1	USRT	102	600000	#ff0000	10pct	1	50pct	50pct	3000	551928	554946	551613	57	555253	307	0	0	100
6.1.1	win	2020-04-15	22:55:20	1	1	1	USRTblock	1	USRT	103	600000	#ff0000	10pct	1	50pct	50pct	7000	555257	562262	554946	57	562549	287	0	0	101
6.1.1	win	2020-04-15	22:55:20	1	1	1	USRTblock	1	USRT	104	600000	#ff0000	10pct	1	50pct	50pct	4000	562552	566562	562262	57	567151	589	0	0	102
6.1.1	win	2020-04-15	22:55:20	1	1	1	USRTblock	1	USRT	105	600000	#ff0000	10pct	1	50pct	50pct	4000	567155	571162	566562	57	571523	361	0	0	103
6.1.1	win	2020-04-15	22:55:20	1	1	1	USRTblock	1	USRT	106	600000	#ff0000	10pct	1	50pct	50pct	3000	571526	574544	571162	57	574864	320	0	0	104
6.1.1	win	2020-04-15	22:55:20	1	1	1	USRTblock	1	USRT	107	600000	#ff0000	10pct	1	50pct	50pct	5000	574868	579877	574544	57	580195	318	0	0	105
6.1.1	win	2020-04-15	22:55:20	1	1	1	USRTblock	1	USRT	108	600000	#ff0000	10pct	1	50pct	50pct	3000	580199	583210	579877	57	583506	296	0	0	106
6.1.1	win	2020-04-15	22:55:20	1	1	1	USRTblock	1	USRT	109	600000	#ff0000	10pct	1	50pct	50pct	7000	583510	590526	583210	57	590782	256	0	0	107
6.1.1	win	2020-04-15	22:55:20	1	1	1	USRTblock	1	USRT	110	600000	#ff0000	10pct	1	50pct	50pct	5000	590785	595792	590526	57	596061	269	0	0	108
6.1.1	win	2020-04-15	22:55:20	1	1	1	USRTblock	1	USRT	111	600000	#ff0000	10pct	1	50pct	50pct	4000	596064	600075	595792	57	600394	319	0	0	109
6.1.1	win	2020-04-15	22:55:20	1	1	1	USRTblock	1	USRT	112	600000	#ff0000	10pct	1	50pct	50pct	7000	600399	-1	600075	0	600465	0	1	1	110
