build	computer.platform	date	time	subject	group	sessionid	blockcode	blocknum	trialcode	trialnum	testduration	targetcolor	targetsize	fixed	targetx	targety	stiminterval	trialStart	shape.targetcircle.timestamp	lastCircleTimestamp	response	rt_elapsed	rt	EarlyResponse	countEarlyResponses	countResponses
6.1.1	win	2020-04-17	19:05:02	1	1	1	USRTblock	1	USRT	3	600000	#ff0000	10pct	1	50pct	50pct	5000	2804	7818	2081	57	8068	250	0	0	1
6.1.1	win	2020-04-17	19:05:02	1	1	1	USRTblock	1	USRT	4	600000	#ff0000	10pct	1	50pct	50pct	7000	8108	15117	7818	57	15374	257	0	0	2
6.1.1	win	2020-04-17	19:05:02	1	1	1	USRTblock	1	USRT	5	600000	#ff0000	10pct	1	50pct	50pct	5000	15378	20384	15117	57	20642	258	0	0	3
6.1.1	win	2020-04-17	19:05:02	1	1	1	USRTblock	1	USRT	6	600000	#ff0000	10pct	1	50pct	50pct	5000	20645	25667	20384	57	25920	253	0	0	4
6.1.1	win	2020-04-17	19:05:02	1	1	1	USRTblock	1	USRT	7	600000	#ff0000	10pct	1	50pct	50pct	3000	25924	28932	25667	57	29214	282	0	0	5
6.1.1	win	2020-04-17	19:05:02	1	1	1	USRTblock	1	USRT	8	600000	#ff0000	10pct	1	50pct	50pct	5000	29218	34232	28932	57	34567	335	0	0	6
6.1.1	win	2020-04-17	19:05:02	1	1	1	USRTblock	1	USRT	9	600000	#ff0000	10pct	1	50pct	50pct	7000	34570	41582	34232	57	41840	258	0	0	7
6.1.1	win	2020-04-17	19:05:02	1	1	1	USRTblock	1	USRT	10	600000	#ff0000	10pct	1	50pct	50pct	5000	41843	46864	41582	57	47102	238	0	0	8
6.1.1	win	2020-04-17	19:05:02	1	1	1	USRTblock	1	USRT	11	600000	#ff0000	10pct	1	50pct	50pct	5000	47106	52114	46864	57	52361	247	0	0	9
6.1.1	win	2020-04-17	19:05:02	1	1	1	USRTblock	1	USRT	12	600000	#ff0000	10pct	1	50pct	50pct	5000	52365	57380	52114	57	57670	290	0	0	10
6.1.1	win	2020-04-17	19:05:02	1	1	1	USRTblock	1	USRT	13	600000	#ff0000	10pct	1	50pct	50pct	3000	57674	60679	57380	57	61029	350	0	0	11
6.1.1	win	2020-04-17	19:05:02	1	1	1	USRTblock	1	USRT	14	600000	#ff0000	10pct	1	50pct	50pct	8000	61034	69046	60679	57	69334	288	0	0	12
6.1.1	win	2020-04-17	19:05:02	1	1	1	USRTblock	1	USRT	15	600000	#ff0000	10pct	1	50pct	50pct	7000	69338	76345	69046	57	76583	238	0	0	13
6.1.1	win	2020-04-17	19:05:02	1	1	1	USRTblock	1	USRT	16	600000	#ff0000	10pct	1	50pct	50pct	7000	76588	83594	76345	57	83939	345	0	0	14
6.1.1	win	2020-04-17	19:05:02	1	1	1	USRTblock	1	USRT	17	600000	#ff0000	10pct	1	50pct	50pct	2000	83942	85960	83594	57	86358	398	0	0	15
6.1.1	win	2020-04-17	19:05:02	1	1	1	USRTblock	1	USRT	18	600000	#ff0000	10pct	1	50pct	50pct	3000	86361	89377	85960	57	89693	316	0	0	16
6.1.1	win	2020-04-17	19:05:02	1	1	1	USRTblock	1	USRT	19	600000	#ff0000	10pct	1	50pct	50pct	6000	89697	95710	89377	57	96005	295	0	0	17
6.1.1	win	2020-04-17	19:05:02	1	1	1	USRTblock	1	USRT	20	600000	#ff0000	10pct	1	50pct	50pct	8000	96009	104025	95710	57	104339	314	0	0	18
6.1.1	win	2020-04-17	19:05:02	1	1	1	USRTblock	1	USRT	21	600000	#ff0000	10pct	1	50pct	50pct	6000	104343	110358	104025	57	110665	307	0	0	19
6.1.1	win	2020-04-17	19:05:02	1	1	1	USRTblock	1	USRT	22	600000	#ff0000	10pct	1	50pct	50pct	8000	110668	118673	110358	57	118951	278	0	0	20
6.1.1	win	2020-04-17	19:05:02	1	1	1	USRTblock	1	USRT	23	600000	#ff0000	10pct	1	50pct	50pct	6000	118955	124973	118673	57	125274	301	0	0	21
6.1.1	win	2020-04-17	19:05:02	1	1	1	USRTblock	1	USRT	24	600000	#ff0000	10pct	1	50pct	50pct	4000	125278	129289	124973	57	129576	287	0	0	22
6.1.1	win	2020-04-17	19:05:02	1	1	1	USRTblock	1	USRT	25	600000	#ff0000	10pct	1	50pct	50pct	5000	129580	134589	129289	57	134861	272	0	0	23
6.1.1	win	2020-04-17	19:05:02	1	1	1	USRTblock	1	USRT	26	600000	#ff0000	10pct	1	50pct	50pct	6000	134864	140871	134589	57	141153	282	0	0	24
6.1.1	win	2020-04-17	19:05:02	1	1	1	USRTblock	1	USRT	27	600000	#ff0000	10pct	1	50pct	50pct	5000	141157	146171	140871	57	146445	274	0	0	25
6.1.1	win	2020-04-17	19:05:02	1	1	1	USRTblock	1	USRT	28	600000	#ff0000	10pct	1	50pct	50pct	6000	146449	152454	146171	57	152732	278	0	0	26
6.1.1	win	2020-04-17	19:05:02	1	1	1	USRTblock	1	USRT	29	600000	#ff0000	10pct	1	50pct	50pct	6000	152735	158753	152454	57	159035	282	0	0	27
6.1.1	win	2020-04-17	19:05:02	1	1	1	USRTblock	1	USRT	30	600000	#ff0000	10pct	1	50pct	50pct	3000	159039	162053	158753	57	162407	354	0	0	28
6.1.1	win	2020-04-17	19:05:02	1	1	1	USRTblock	1	USRT	31	600000	#ff0000	10pct	1	50pct	50pct	2000	162411	164419	162053	57	164688	269	0	0	29
6.1.1	win	2020-04-17	19:05:02	1	1	1	USRTblock	1	USRT	32	600000	#ff0000	10pct	1	50pct	50pct	2000	164691	166702	164419	57	167033	331	0	0	30
6.1.1	win	2020-04-17	19:05:02	1	1	1	USRTblock	1	USRT	33	600000	#ff0000	10pct	1	50pct	50pct	5000	167036	172051	166702	57	172316	265	0	0	31
6.1.1	win	2020-04-17	19:05:02	1	1	1	USRTblock	1	USRT	34	600000	#ff0000	10pct	1	50pct	50pct	2000	172319	174334	172051	57	174613	279	0	0	32
6.1.1	win	2020-04-17	19:05:02	1	1	1	USRTblock	1	USRT	35	600000	#ff0000	10pct	1	50pct	50pct	2000	174616	176634	174334	57	176923	289	0	0	33
6.1.1	win	2020-04-17	19:05:02	1	1	1	USRTblock	1	USRT	36	600000	#ff0000	10pct	1	50pct	50pct	2000	176926	178934	176634	57	179288	354	0	0	34
6.1.1	win	2020-04-17	19:05:02	1	1	1	USRTblock	1	USRT	37	600000	#ff0000	10pct	1	50pct	50pct	3000	179292	182301	178934	57	182583	282	0	0	35
6.1.1	win	2020-04-17	19:05:02	1	1	1	USRTblock	1	USRT	38	600000	#ff0000	10pct	1	50pct	50pct	3000	182586	185600	182301	57	185823	223	0	0	36
6.1.1	win	2020-04-17	19:05:02	1	1	1	USRTblock	1	USRT	39	600000	#ff0000	10pct	1	50pct	50pct	3000	185826	188833	185600	57	189726	893	0	0	37
6.1.1	win	2020-04-17	19:05:02	1	1	1	USRTblock	1	USRT	40	600000	#ff0000	10pct	1	50pct	50pct	4000	189730	193749	188833	57	194011	262	0	0	38
6.1.1	win	2020-04-17	19:05:02	1	1	1	USRTblock	1	USRT	41	600000	#ff0000	10pct	1	50pct	50pct	2000	194014	196032	193749	57	196326	294	0	0	39
6.1.1	win	2020-04-17	19:05:02	1	1	1	USRTblock	1	USRT	42	600000	#ff0000	10pct	1	50pct	50pct	2000	196329	198349	196032	57	198594	245	0	0	40
6.1.1	win	2020-04-17	19:05:02	1	1	1	USRTblock	1	USRT	43	600000	#ff0000	10pct	1	50pct	50pct	2000	198597	200615	198349	57	200835	220	0	0	41
6.1.1	win	2020-04-17	19:05:02	1	1	1	USRTblock	1	USRT	44	600000	#ff0000	10pct	1	50pct	50pct	7000	200839	207848	200615	57	208088	240	0	0	42
6.1.1	win	2020-04-17	19:05:02	1	1	1	USRTblock	1	USRT	45	600000	#ff0000	10pct	1	50pct	50pct	4000	208092	212098	207848	57	212409	311	0	0	43
6.1.1	win	2020-04-17	19:05:02	1	1	1	USRTblock	1	USRT	46	600000	#ff0000	10pct	1	50pct	50pct	8000	212413	220430	212098	57	220647	217	0	0	44
6.1.1	win	2020-04-17	19:05:02	1	1	1	USRTblock	1	USRT	47	600000	#ff0000	10pct	1	50pct	50pct	6000	220651	226663	220430	57	226915	252	0	0	45
6.1.1	win	2020-04-17	19:05:02	1	1	1	USRTblock	1	USRT	48	600000	#ff0000	10pct	1	50pct	50pct	4000	226918	230929	226663	57	231219	290	0	0	46
6.1.1	win	2020-04-17	19:05:02	1	1	1	USRTblock	1	USRT	49	600000	#ff0000	10pct	1	50pct	50pct	8000	231222	239228	230929	57	239495	267	0	0	47
6.1.1	win	2020-04-17	19:05:02	1	1	1	USRTblock	1	USRT	50	600000	#ff0000	10pct	1	50pct	50pct	4000	239499	243511	239228	57	243775	264	0	0	48
6.1.1	win	2020-04-17	19:05:02	1	1	1	USRTblock	1	USRT	51	600000	#ff0000	10pct	1	50pct	50pct	6000	243779	249794	243511	57	250048	254	0	0	49
6.1.1	win	2020-04-17	19:05:02	1	1	1	USRTblock	1	USRT	52	600000	#ff0000	10pct	1	50pct	50pct	3000	250076	253093	249794	57	253463	370	0	0	50
6.1.1	win	2020-04-17	19:05:02	1	1	1	USRTblock	1	USRT	53	600000	#ff0000	10pct	1	50pct	50pct	6000	253466	259476	253093	57	259731	255	0	0	51
6.1.1	win	2020-04-17	19:05:02	1	1	1	USRTblock	1	USRT	54	600000	#ff0000	10pct	1	50pct	50pct	7000	259735	266742	259476	57	266976	234	0	0	52
6.1.1	win	2020-04-17	19:05:02	1	1	1	USRTblock	1	USRT	55	600000	#ff0000	10pct	1	50pct	50pct	8000	266980	274992	266742	57	275215	223	0	0	53
6.1.1	win	2020-04-17	19:05:02	1	1	1	USRTblock	1	USRT	56	600000	#ff0000	10pct	1	50pct	50pct	6000	275218	281224	274992	57	281479	255	0	0	54
6.1.1	win	2020-04-17	19:05:02	1	1	1	USRTblock	1	USRT	57	600000	#ff0000	10pct	1	50pct	50pct	5000	281482	286491	281224	57	286787	296	0	0	55
6.1.1	win	2020-04-17	19:05:02	1	1	1	USRTblock	1	USRT	58	600000	#ff0000	10pct	1	50pct	50pct	3000	286791	289807	286491	57	290211	404	0	0	56
6.1.1	win	2020-04-17	19:05:02	1	1	1	USRTblock	1	USRT	59	600000	#ff0000	10pct	1	50pct	50pct	4000	290217	294239	289807	57	294524	285	0	0	57
6.1.1	win	2020-04-17	19:05:02	1	1	1	USRTblock	1	USRT	60	600000	#ff0000	10pct	1	50pct	50pct	8000	294528	302539	294239	57	302797	258	0	0	58
6.1.1	win	2020-04-17	19:05:02	1	1	1	USRTblock	1	USRT	61	600000	#ff0000	10pct	1	50pct	50pct	6000	302801	308821	302539	57	309091	270	0	0	59
6.1.1	win	2020-04-17	19:05:02	1	1	1	USRTblock	1	USRT	62	600000	#ff0000	10pct	1	50pct	50pct	4000	309095	313103	308821	57	313476	373	0	0	60
6.1.1	win	2020-04-17	19:05:02	1	1	1	USRTblock	1	USRT	63	600000	#ff0000	10pct	1	50pct	50pct	7000	313480	320486	313103	57	320735	249	0	0	61
6.1.1	win	2020-04-17	19:05:02	1	1	1	USRTblock	1	USRT	64	600000	#ff0000	10pct	1	50pct	50pct	2000	320739	322753	320486	57	323210	457	0	0	62
6.1.1	win	2020-04-17	19:05:02	1	1	1	USRTblock	1	USRT	65	600000	#ff0000	10pct	1	50pct	50pct	5000	323214	328220	322753	57	328512	292	0	0	63
6.1.1	win	2020-04-17	19:05:02	1	1	1	USRTblock	1	USRT	66	600000	#ff0000	10pct	1	50pct	50pct	5000	328515	333535	328220	57	333888	353	0	0	64
6.1.1	win	2020-04-17	19:05:02	1	1	1	USRTblock	1	USRT	67	600000	#ff0000	10pct	1	50pct	50pct	5000	333891	338902	333535	57	339163	261	0	0	65
6.1.1	win	2020-04-17	19:05:02	1	1	1	USRTblock	1	USRT	68	600000	#ff0000	10pct	1	50pct	50pct	4000	339167	343184	338902	57	343448	264	0	0	66
6.1.1	win	2020-04-17	19:05:02	1	1	1	USRTblock	1	USRT	69	600000	#ff0000	10pct	1	50pct	50pct	8000	343451	351467	343184	57	351766	299	0	0	67
6.1.1	win	2020-04-17	19:05:02	1	1	1	USRTblock	1	USRT	70	600000	#ff0000	10pct	1	50pct	50pct	2000	351770	353783	351467	57	354099	316	0	0	68
6.1.1	win	2020-04-17	19:05:02	1	1	1	USRTblock	1	USRT	71	600000	#ff0000	10pct	1	50pct	50pct	3000	354102	357116	353783	57	357389	273	0	0	69
6.1.1	win	2020-04-17	19:05:02	1	1	1	USRTblock	1	USRT	72	600000	#ff0000	10pct	1	50pct	50pct	4000	357393	361399	357116	57	361683	284	0	0	70
6.1.1	win	2020-04-17	19:05:02	1	1	1	USRTblock	1	USRT	73	600000	#ff0000	10pct	1	50pct	50pct	7000	361686	-1	361399	57	367722	0	1	1	71
6.1.1	win	2020-04-17	19:05:02	1	1	1	USRTblock	1	USRT	74	600000	#ff0000	10pct	1	50pct	50pct	5000	367725	372732	-1	57	372981	249	0	1	72
6.1.1	win	2020-04-17	19:05:02	1	1	1	USRTblock	1	USRT	75	600000	#ff0000	10pct	1	50pct	50pct	7000	372985	379998	372732	57	380267	269	0	1	73
6.1.1	win	2020-04-17	19:05:02	1	1	1	USRTblock	1	USRT	76	600000	#ff0000	10pct	1	50pct	50pct	6000	380271	386280	379998	57	386578	298	0	1	74
6.1.1	win	2020-04-17	19:05:02	1	1	1	USRTblock	1	USRT	77	600000	#ff0000	10pct	1	50pct	50pct	4000	386582	390597	386280	57	390900	303	0	1	75
6.1.1	win	2020-04-17	19:05:02	1	1	1	USRTblock	1	USRT	78	600000	#ff0000	10pct	1	50pct	50pct	3000	390903	393912	390597	57	394225	313	0	1	76
6.1.1	win	2020-04-17	19:05:02	1	1	1	USRTblock	1	USRT	79	600000	#ff0000	10pct	1	50pct	50pct	2000	394229	396245	393912	57	396595	350	0	1	77
6.1.1	win	2020-04-17	19:05:02	1	1	1	USRTblock	1	USRT	80	600000	#ff0000	10pct	1	50pct	50pct	5000	396599	401612	396245	57	401910	298	0	1	78
6.1.1	win	2020-04-17	19:05:02	1	1	1	USRTblock	1	USRT	81	600000	#ff0000	10pct	1	50pct	50pct	7000	401914	408928	401612	57	409299	371	0	1	79
6.1.1	win	2020-04-17	19:05:02	1	1	1	USRTblock	1	USRT	82	600000	#ff0000	10pct	1	50pct	50pct	7000	409302	416310	408928	57	416640	330	0	1	80
6.1.1	win	2020-04-17	19:05:02	1	1	1	USRTblock	1	USRT	83	600000	#ff0000	10pct	1	50pct	50pct	5000	416643	421660	416310	57	421941	281	0	1	81
6.1.1	win	2020-04-17	19:05:02	1	1	1	USRTblock	1	USRT	84	600000	#ff0000	10pct	1	50pct	50pct	3000	421944	424959	421660	57	425276	317	0	1	82
6.1.1	win	2020-04-17	19:05:02	1	1	1	USRTblock	1	USRT	85	600000	#ff0000	10pct	1	50pct	50pct	6000	425280	431293	424959	57	431587	294	0	1	83
6.1.1	win	2020-04-17	19:05:02	1	1	1	USRTblock	1	USRT	86	600000	#ff0000	10pct	1	50pct	50pct	8000	431591	439608	431293	57	439936	328	0	1	84
6.1.1	win	2020-04-17	19:05:02	1	1	1	USRTblock	1	USRT	87	600000	#ff0000	10pct	1	50pct	50pct	6000	439940	445958	439608	57	446326	368	0	1	85
6.1.1	win	2020-04-17	19:05:02	1	1	1	USRTblock	1	USRT	88	600000	#ff0000	10pct	1	50pct	50pct	7000	446330	453340	445958	57	453695	355	0	1	86
6.1.1	win	2020-04-17	19:05:02	1	1	1	USRTblock	1	USRT	89	600000	#ff0000	10pct	1	50pct	50pct	4000	453698	457706	453340	57	458284	578	0	1	87
6.1.1	win	2020-04-17	19:05:02	1	1	1	USRTblock	1	USRT	90	600000	#ff0000	10pct	1	50pct	50pct	3000	458288	461305	457706	57	461653	348	0	1	88
6.1.1	win	2020-04-17	19:05:02	1	1	1	USRTblock	1	USRT	91	600000	#ff0000	10pct	1	50pct	50pct	7000	461696	468705	461305	57	468979	274	0	1	89
6.1.1	win	2020-04-17	19:05:02	1	1	1	USRTblock	1	USRT	92	600000	#ff0000	10pct	1	50pct	50pct	4000	468983	472988	468705	57	473270	282	0	1	90
6.1.1	win	2020-04-17	19:05:02	1	1	1	USRTblock	1	USRT	93	600000	#ff0000	10pct	1	50pct	50pct	5000	473274	478288	472988	57	478619	331	0	1	91
6.1.1	win	2020-04-17	19:05:02	1	1	1	USRTblock	1	USRT	94	600000	#ff0000	10pct	1	50pct	50pct	4000	478623	482637	478288	57	482991	354	0	1	92
6.1.1	win	2020-04-17	19:05:02	1	1	1	USRTblock	1	USRT	95	600000	#ff0000	10pct	1	50pct	50pct	3000	482996	486003	482637	57	486309	306	0	1	93
6.1.1	win	2020-04-17	19:05:02	1	1	1	USRTblock	1	USRT	96	600000	#ff0000	10pct	1	50pct	50pct	5000	486314	491336	486003	57	491644	308	0	1	94
6.1.1	win	2020-04-17	19:05:02	1	1	1	USRTblock	1	USRT	97	600000	#ff0000	10pct	1	50pct	50pct	6000	491648	497652	491336	57	497923	271	0	1	95
6.1.1	win	2020-04-17	19:05:02	1	1	1	USRTblock	1	USRT	98	600000	#ff0000	10pct	1	50pct	50pct	7000	497926	504934	497652	57	505271	337	0	1	96
6.1.1	win	2020-04-17	19:05:02	1	1	1	USRTblock	1	USRT	99	600000	#ff0000	10pct	1	50pct	50pct	8000	505274	513284	504934	57	513597	313	0	1	97
6.1.1	win	2020-04-17	19:05:02	1	1	1	USRTblock	1	USRT	100	600000	#ff0000	10pct	1	50pct	50pct	6000	513602	519617	513284	57	519901	284	0	1	98
6.1.1	win	2020-04-17	19:05:02	1	1	1	USRTblock	1	USRT	101	600000	#ff0000	10pct	1	50pct	50pct	6000	519905	525917	519617	57	526227	310	0	1	99
6.1.1	win	2020-04-17	19:05:02	1	1	1	USRTblock	1	USRT	102	600000	#ff0000	10pct	1	50pct	50pct	2000	526232	528249	525917	57	528545	296	0	1	100
6.1.1	win	2020-04-17	19:05:02	1	1	1	USRTblock	1	USRT	103	600000	#ff0000	10pct	1	50pct	50pct	3000	528549	531565	528249	57	531867	302	0	1	101
6.1.1	win	2020-04-17	19:05:02	1	1	1	USRTblock	1	USRT	104	600000	#ff0000	10pct	1	50pct	50pct	7000	531871	538882	531565	57	539132	250	0	1	102
6.1.1	win	2020-04-17	19:05:02	1	1	1	USRTblock	1	USRT	105	600000	#ff0000	10pct	1	50pct	50pct	7000	539135	546148	538882	57	546440	292	0	1	103
6.1.1	win	2020-04-17	19:05:02	1	1	1	USRTblock	1	USRT	106	600000	#ff0000	10pct	1	50pct	50pct	5000	546443	551464	546148	57	551704	240	0	1	104
6.1.1	win	2020-04-17	19:05:02	1	1	1	USRTblock	1	USRT	107	600000	#ff0000	10pct	1	50pct	50pct	8000	551708	559713	551464	57	560016	303	0	1	105
6.1.1	win	2020-04-17	19:05:02	1	1	1	USRTblock	1	USRT	108	600000	#ff0000	10pct	1	50pct	50pct	8000	560019	568029	559713	57	568285	256	0	1	106
6.1.1	win	2020-04-17	19:05:02	1	1	1	USRTblock	1	USRT	109	600000	#ff0000	10pct	1	50pct	50pct	5000	568289	573294	568029	57	573631	337	0	1	107
6.1.1	win	2020-04-17	19:05:02	1	1	1	USRTblock	1	USRT	110	600000	#ff0000	10pct	1	50pct	50pct	3000	573634	576644	573294	57	577211	567	0	1	108
6.1.1	win	2020-04-17	19:05:02	1	1	1	USRTblock	1	USRT	111	600000	#ff0000	10pct	1	50pct	50pct	3000	577214	580227	576644	57	580491	264	0	1	109
6.1.1	win	2020-04-17	19:05:02	1	1	1	USRTblock	1	USRT	112	600000	#ff0000	10pct	1	50pct	50pct	4000	580494	584511	580227	57	584760	249	0	1	110
6.1.1	win	2020-04-17	19:05:02	1	1	1	USRTblock	1	USRT	113	600000	#ff0000	10pct	1	50pct	50pct	5000	584764	589776	584511	57	590035	259	0	1	111
6.1.1	win	2020-04-17	19:05:02	1	1	1	USRTblock	1	USRT	114	600000	#ff0000	10pct	1	50pct	50pct	4000	590038	594059	589776	57	594329	270	0	1	112
6.1.1	win	2020-04-17	19:05:02	1	1	1	USRTblock	1	USRT	115	600000	#ff0000	10pct	1	50pct	50pct	8000	594332	-1	594059	0	594432	0	1	2	113
