build	computer.platform	date	time	subject	group	sessionid	blockcode	blocknum	trialcode	trialnum	testduration	targetcolor	targetsize	fixed	targetx	targety	stiminterval	trialStart	shape.targetcircle.timestamp	lastCircleTimestamp	response	rt_elapsed	rt	EarlyResponse	countEarlyResponses	countResponses
6.1.1	win	2020-04-15	16:43:18	1	1	1	USRTblock	1	USRT	3	600000	#ff0000	10pct	1	50pct	50pct	5000	4062	9074	3337	57	9314	240	0	0	1
6.1.1	win	2020-04-15	16:43:18	1	1	1	USRTblock	1	USRT	4	600000	#ff0000	10pct	1	50pct	50pct	7000	9327	-1	9074	57	14209	0	1	1	2
6.1.1	win	2020-04-15	16:43:18	1	1	1	USRTblock	1	USRT	5	600000	#ff0000	10pct	1	50pct	50pct	8000	14213	22223	-1	57	22473	250	0	1	3
6.1.1	win	2020-04-15	16:43:18	1	1	1	USRTblock	1	USRT	6	600000	#ff0000	10pct	1	50pct	50pct	3000	22477	25489	22223	57	25782	293	0	1	4
6.1.1	win	2020-04-15	16:43:18	1	1	1	USRTblock	1	USRT	7	600000	#ff0000	10pct	1	50pct	50pct	3000	25785	28805	25489	57	29093	288	0	1	5
6.1.1	win	2020-04-15	16:43:18	1	1	1	USRTblock	1	USRT	8	600000	#ff0000	10pct	1	50pct	50pct	6000	29096	35105	28805	57	35365	260	0	1	6
6.1.1	win	2020-04-15	16:43:18	1	1	1	USRTblock	1	USRT	9	600000	#ff0000	10pct	1	50pct	50pct	4000	35369	39388	35105	57	39789	401	0	1	7
6.1.1	win	2020-04-15	16:43:18	1	1	1	USRTblock	1	USRT	10	600000	#ff0000	10pct	1	50pct	50pct	5000	39793	44803	39388	57	45082	279	0	1	8
6.1.1	win	2020-04-15	16:43:18	1	1	1	USRTblock	1	USRT	11	600000	#ff0000	10pct	1	50pct	50pct	4000	45086	49103	44803	57	49477	374	0	1	9
6.1.1	win	2020-04-15	16:43:18	1	1	1	USRTblock	1	USRT	12	600000	#ff0000	10pct	1	50pct	50pct	2000	49480	51486	49103	57	51906	420	0	1	10
6.1.1	win	2020-04-15	16:43:18	1	1	1	USRTblock	1	USRT	13	600000	#ff0000	10pct	1	50pct	50pct	2000	51910	53919	51486	57	54263	344	0	1	11
6.1.1	win	2020-04-15	16:43:18	1	1	1	USRTblock	1	USRT	14	600000	#ff0000	10pct	1	50pct	50pct	3000	54267	57285	53919	57	57606	321	0	1	12
6.1.1	win	2020-04-15	16:43:18	1	1	1	USRTblock	1	USRT	15	600000	#ff0000	10pct	1	50pct	50pct	8000	57609	65618	57285	57	65873	255	0	1	13
6.1.1	win	2020-04-15	16:43:18	1	1	1	USRTblock	1	USRT	16	600000	#ff0000	10pct	1	50pct	50pct	7000	65877	72884	65618	57	73156	272	0	1	14
6.1.1	win	2020-04-15	16:43:18	1	1	1	USRTblock	1	USRT	17	600000	#ff0000	10pct	1	50pct	50pct	6000	73159	79167	72884	57	79511	344	0	1	15
6.1.1	win	2020-04-15	16:43:18	1	1	1	USRTblock	1	USRT	18	600000	#ff0000	10pct	1	50pct	50pct	5000	79515	84533	79167	57	84998	465	0	1	16
6.1.1	win	2020-04-15	16:43:18	1	1	1	USRTblock	1	USRT	19	600000	#ff0000	10pct	1	50pct	50pct	2000	85002	87016	84533	57	87732	716	0	1	17
6.1.1	win	2020-04-15	16:43:18	1	1	1	USRTblock	1	USRT	20	600000	#ff0000	10pct	1	50pct	50pct	2000	87736	89749	87016	57	90296	547	0	1	18
6.1.1	win	2020-04-15	16:43:18	1	1	1	USRTblock	1	USRT	21	600000	#ff0000	10pct	1	50pct	50pct	3000	90300	93315	89749	57	93615	300	0	1	19
6.1.1	win	2020-04-15	16:43:18	1	1	1	USRTblock	1	USRT	22	600000	#ff0000	10pct	1	50pct	50pct	3000	93619	96631	93315	57	96954	323	0	1	20
6.1.1	win	2020-04-15	16:43:18	1	1	1	USRTblock	1	USRT	23	600000	#ff0000	10pct	1	50pct	50pct	5000	96957	-1	96631	57	100214	0	1	2	21
6.1.1	win	2020-04-15	16:43:18	1	1	1	USRTblock	1	USRT	24	600000	#ff0000	10pct	1	50pct	50pct	6000	100218	106230	-1	57	106563	333	0	2	22
6.1.1	win	2020-04-15	16:43:18	1	1	1	USRTblock	1	USRT	25	600000	#ff0000	10pct	1	50pct	50pct	5000	106566	111580	106230	57	111914	334	0	2	23
6.1.1	win	2020-04-15	16:43:18	1	1	1	USRTblock	1	USRT	26	600000	#ff0000	10pct	1	50pct	50pct	8000	111919	119929	111580	57	120205	276	0	2	24
6.1.1	win	2020-04-15	16:43:18	1	1	1	USRTblock	1	USRT	27	600000	#ff0000	10pct	1	50pct	50pct	5000	120208	125228	119929	57	125506	278	0	2	25
6.1.1	win	2020-04-15	16:43:18	1	1	1	USRTblock	1	USRT	28	600000	#ff0000	10pct	1	50pct	50pct	4000	125509	129528	125228	57	129810	282	0	2	26
6.1.1	win	2020-04-15	16:43:18	1	1	1	USRTblock	1	USRT	29	600000	#ff0000	10pct	1	50pct	50pct	5000	129814	134828	129528	57	135099	271	0	2	27
6.1.1	win	2020-04-15	16:43:18	1	1	1	USRTblock	1	USRT	30	600000	#ff0000	10pct	1	50pct	50pct	2000	135102	137110	134828	57	137398	288	0	2	28
6.1.1	win	2020-04-15	16:43:18	1	1	1	USRTblock	1	USRT	31	600000	#ff0000	10pct	1	50pct	50pct	5000	137402	142410	137110	57	142683	273	0	2	29
6.1.1	win	2020-04-15	16:43:18	1	1	1	USRTblock	1	USRT	32	600000	#ff0000	10pct	1	50pct	50pct	4000	142686	146693	142410	57	146947	254	0	2	30
6.1.1	win	2020-04-15	16:43:18	1	1	1	USRTblock	1	USRT	33	600000	#ff0000	10pct	1	50pct	50pct	2000	146951	148959	146693	57	149272	313	0	2	31
6.1.1	win	2020-04-15	16:43:18	1	1	1	USRTblock	1	USRT	34	600000	#ff0000	10pct	1	50pct	50pct	5000	149275	154292	148959	57	154550	258	0	2	32
6.1.1	win	2020-04-15	16:43:18	1	1	1	USRTblock	1	USRT	35	600000	#ff0000	10pct	1	50pct	50pct	6000	154553	160558	154292	57	160821	263	0	2	33
6.1.1	win	2020-04-15	16:43:18	1	1	1	USRTblock	1	USRT	36	600000	#ff0000	10pct	1	50pct	50pct	2000	160825	162842	160558	57	163210	368	0	2	34
6.1.1	win	2020-04-15	16:43:18	1	1	1	USRTblock	1	USRT	37	600000	#ff0000	10pct	1	50pct	50pct	8000	163214	171225	162842	57	171503	278	0	2	35
6.1.1	win	2020-04-15	16:43:18	1	1	1	USRTblock	1	USRT	38	600000	#ff0000	10pct	1	50pct	50pct	4000	171506	175523	171225	57	175789	266	0	2	36
6.1.1	win	2020-04-15	16:43:18	1	1	1	USRTblock	1	USRT	39	600000	#ff0000	10pct	1	50pct	50pct	4000	175792	179806	175523	57	180203	397	0	2	37
6.1.1	win	2020-04-15	16:43:18	1	1	1	USRTblock	1	USRT	40	600000	#ff0000	10pct	1	50pct	50pct	3000	180206	183223	179806	57	183623	400	0	2	38
6.1.1	win	2020-04-15	16:43:18	1	1	1	USRTblock	1	USRT	41	600000	#ff0000	10pct	1	50pct	50pct	2000	183626	185639	183223	57	186017	378	0	2	39
6.1.1	win	2020-04-15	16:43:18	1	1	1	USRTblock	1	USRT	42	600000	#ff0000	10pct	1	50pct	50pct	3000	186021	189039	185639	57	189357	318	0	2	40
6.1.1	win	2020-04-15	16:43:18	1	1	1	USRTblock	1	USRT	43	600000	#ff0000	10pct	1	50pct	50pct	4000	189360	193371	189039	57	193726	355	0	2	41
6.1.1	win	2020-04-15	16:43:18	1	1	1	USRTblock	1	USRT	44	600000	#ff0000	10pct	1	50pct	50pct	4000	193730	197738	193371	57	198052	314	0	2	42
6.1.1	win	2020-04-15	16:43:18	1	1	1	USRTblock	1	USRT	45	600000	#ff0000	10pct	1	50pct	50pct	5000	198056	203071	197738	57	203397	326	0	2	43
6.1.1	win	2020-04-15	16:43:18	1	1	1	USRTblock	1	USRT	46	600000	#ff0000	10pct	1	50pct	50pct	7000	203401	210420	203071	57	210682	262	0	2	44
6.1.1	win	2020-04-15	16:43:18	1	1	1	USRTblock	1	USRT	47	600000	#ff0000	10pct	1	50pct	50pct	6000	210686	216703	210420	57	217089	386	0	2	45
6.1.1	win	2020-04-15	16:43:18	1	1	1	USRTblock	1	USRT	48	600000	#ff0000	10pct	1	50pct	50pct	3000	217093	220102	216703	57	220416	314	0	2	46
6.1.1	win	2020-04-15	16:43:18	1	1	1	USRTblock	1	USRT	49	600000	#ff0000	10pct	1	50pct	50pct	5000	220420	225435	220102	57	225778	343	0	2	47
6.1.1	win	2020-04-15	16:43:18	1	1	1	USRTblock	1	USRT	50	600000	#ff0000	10pct	1	50pct	50pct	4000	225781	229801	225435	57	230099	298	0	2	48
6.1.1	win	2020-04-15	16:43:18	1	1	1	USRTblock	1	USRT	51	600000	#ff0000	10pct	1	50pct	50pct	5000	230103	235118	229801	57	235402	284	0	2	49
6.1.1	win	2020-04-15	16:43:18	1	1	1	USRTblock	1	USRT	52	600000	#ff0000	10pct	1	50pct	50pct	7000	235405	242418	235118	57	242778	360	0	2	50
6.1.1	win	2020-04-15	16:43:18	1	1	1	USRTblock	1	USRT	53	600000	#ff0000	10pct	1	50pct	50pct	6000	242782	248800	242418	57	249090	290	0	2	51
6.1.1	win	2020-04-15	16:43:18	1	1	1	USRTblock	1	USRT	54	600000	#ff0000	10pct	1	50pct	50pct	8000	249094	257099	248800	57	257395	296	0	2	52
6.1.1	win	2020-04-15	16:43:18	1	1	1	USRTblock	1	USRT	55	600000	#ff0000	10pct	1	50pct	50pct	7000	257399	264415	257099	57	264729	314	0	2	53
6.1.1	win	2020-04-15	16:43:18	1	1	1	USRTblock	1	USRT	56	600000	#ff0000	10pct	1	50pct	50pct	7000	264733	271748	264415	57	272021	273	0	2	54
6.1.1	win	2020-04-15	16:43:18	1	1	1	USRTblock	1	USRT	57	600000	#ff0000	10pct	1	50pct	50pct	2000	272025	274030	271748	57	274356	326	0	2	55
6.1.1	win	2020-04-15	16:43:18	1	1	1	USRTblock	1	USRT	58	600000	#ff0000	10pct	1	50pct	50pct	6000	274359	280380	274030	57	280785	405	0	2	56
6.1.1	win	2020-04-15	16:43:18	1	1	1	USRTblock	1	USRT	59	600000	#ff0000	10pct	1	50pct	50pct	3000	280789	283795	280380	57	284173	378	0	2	57
6.1.1	win	2020-04-15	16:43:18	1	1	1	USRTblock	1	USRT	60	600000	#ff0000	10pct	1	50pct	50pct	8000	284176	292195	283795	57	292442	247	0	2	58
6.1.1	win	2020-04-15	16:43:18	1	1	1	USRTblock	1	USRT	61	600000	#ff0000	10pct	1	50pct	50pct	5000	292445	297462	292195	57	297769	307	0	2	59
6.1.1	win	2020-04-15	16:43:18	1	1	1	USRTblock	1	USRT	62	600000	#ff0000	10pct	1	50pct	50pct	2000	297772	299777	297462	57	300230	453	0	2	60
6.1.1	win	2020-04-15	16:43:18	1	1	1	USRTblock	1	USRT	63	600000	#ff0000	10pct	1	50pct	50pct	3000	300234	-1	299777	57	302698	0	1	3	61
6.1.1	win	2020-04-15	16:43:18	1	1	1	USRTblock	1	USRT	64	600000	#ff0000	10pct	1	50pct	50pct	8000	302702	310710	-1	57	310996	286	0	3	62
6.1.1	win	2020-04-15	16:43:18	1	1	1	USRTblock	1	USRT	65	600000	#ff0000	10pct	1	50pct	50pct	2000	311000	313009	310710	57	313333	324	0	3	63
6.1.1	win	2020-04-15	16:43:18	1	1	1	USRTblock	1	USRT	66	600000	#ff0000	10pct	1	50pct	50pct	3000	313337	316342	313009	57	316757	415	0	3	64
6.1.1	win	2020-04-15	16:43:18	1	1	1	USRTblock	1	USRT	67	600000	#ff0000	10pct	1	50pct	50pct	3000	316760	319775	316342	57	320138	363	0	3	65
6.1.1	win	2020-04-15	16:43:18	1	1	1	USRTblock	1	USRT	68	600000	#ff0000	10pct	1	50pct	50pct	4000	320142	324158	319775	57	324424	266	0	3	66
6.1.1	win	2020-04-15	16:43:18	1	1	1	USRTblock	1	USRT	69	600000	#ff0000	10pct	1	50pct	50pct	7000	324427	331442	324158	57	331718	276	0	3	67
6.1.1	win	2020-04-15	16:43:18	1	1	1	USRTblock	1	USRT	70	600000	#ff0000	10pct	1	50pct	50pct	3000	331721	334741	331442	57	335071	330	0	3	68
6.1.1	win	2020-04-15	16:43:18	1	1	1	USRTblock	1	USRT	71	600000	#ff0000	10pct	1	50pct	50pct	4000	335075	339090	334741	57	339392	302	0	3	69
6.1.1	win	2020-04-15	16:43:18	1	1	1	USRTblock	1	USRT	72	600000	#ff0000	10pct	1	50pct	50pct	3000	339396	342407	339090	57	342730	323	0	3	70
6.1.1	win	2020-04-15	16:43:18	1	1	1	USRTblock	1	USRT	73	600000	#ff0000	10pct	1	50pct	50pct	6000	342733	348739	342407	57	349038	299	0	3	71
6.1.1	win	2020-04-15	16:43:18	1	1	1	USRTblock	1	USRT	74	600000	#ff0000	10pct	1	50pct	50pct	2000	349041	351055	348739	57	351395	340	0	3	72
6.1.1	win	2020-04-15	16:43:18	1	1	1	USRTblock	1	USRT	75	600000	#ff0000	10pct	1	50pct	50pct	3000	351398	354405	351055	57	354670	265	0	3	73
6.1.1	win	2020-04-15	16:43:18	1	1	1	USRTblock	1	USRT	76	600000	#ff0000	10pct	1	50pct	50pct	8000	354673	362689	354405	57	362965	276	0	3	74
6.1.1	win	2020-04-15	16:43:18	1	1	1	USRTblock	1	USRT	77	600000	#ff0000	10pct	1	50pct	50pct	5000	362968	367987	362689	57	368262	275	0	3	75
6.1.1	win	2020-04-15	16:43:18	1	1	1	USRTblock	1	USRT	78	600000	#ff0000	10pct	1	50pct	50pct	2000	368267	370287	367987	57	370579	292	0	3	76
6.1.1	win	2020-04-15	16:43:18	1	1	1	USRTblock	1	USRT	79	600000	#ff0000	10pct	1	50pct	50pct	7000	370583	377603	370287	57	377965	362	0	3	77
6.1.1	win	2020-04-15	16:43:18	1	1	1	USRTblock	1	USRT	80	600000	#ff0000	10pct	1	50pct	50pct	2000	377968	379986	377603	57	380345	359	0	3	78
6.1.1	win	2020-04-15	16:43:18	1	1	1	USRTblock	1	USRT	81	600000	#ff0000	10pct	1	50pct	50pct	5000	380349	385370	379986	57	385729	359	0	3	79
6.1.1	win	2020-04-15	16:43:18	1	1	1	USRTblock	1	USRT	82	600000	#ff0000	10pct	1	50pct	50pct	8000	385732	393752	385370	57	393995	243	0	3	80
6.1.1	win	2020-04-15	16:43:18	1	1	1	USRTblock	1	USRT	83	600000	#ff0000	10pct	1	50pct	50pct	6000	393999	400018	393752	57	400299	281	0	3	81
6.1.1	win	2020-04-15	16:43:18	1	1	1	USRTblock	1	USRT	84	600000	#ff0000	10pct	1	50pct	50pct	3000	400303	403317	400018	57	403730	413	0	3	82
6.1.1	win	2020-04-15	16:43:18	1	1	1	USRTblock	1	USRT	85	600000	#ff0000	10pct	1	50pct	50pct	5000	403734	408751	403317	57	409044	293	0	3	83
6.1.1	win	2020-04-15	16:43:18	1	1	1	USRTblock	1	USRT	86	600000	#ff0000	10pct	1	50pct	50pct	7000	409047	416066	408751	57	416417	351	0	3	84
6.1.1	win	2020-04-15	16:43:18	1	1	1	USRTblock	1	USRT	87	600000	#ff0000	10pct	1	50pct	50pct	5000	416421	421432	416066	57	421687	255	0	3	85
6.1.1	win	2020-04-15	16:43:18	1	1	1	USRTblock	1	USRT	88	600000	#ff0000	10pct	1	50pct	50pct	8000	421690	429698	421432	57	429985	287	0	3	86
6.1.1	win	2020-04-15	16:43:18	1	1	1	USRTblock	1	USRT	89	600000	#ff0000	10pct	1	50pct	50pct	8000	429989	437998	429698	57	438281	283	0	3	87
6.1.1	win	2020-04-15	16:43:18	1	1	1	USRTblock	1	USRT	90	600000	#ff0000	10pct	1	50pct	50pct	8000	438285	446297	437998	57	446604	307	0	3	88
6.1.1	win	2020-04-15	16:43:18	1	1	1	USRTblock	1	USRT	91	600000	#ff0000	10pct	1	50pct	50pct	5000	446607	451612	446297	57	451986	374	0	3	89
6.1.1	win	2020-04-15	16:43:18	1	1	1	USRTblock	1	USRT	92	600000	#ff0000	10pct	1	50pct	50pct	7000	451989	458995	451612	57	459280	285	0	3	90
6.1.1	win	2020-04-15	16:43:18	1	1	1	USRTblock	1	USRT	93	600000	#ff0000	10pct	1	50pct	50pct	7000	459284	466295	458995	57	466564	269	0	3	91
6.1.1	win	2020-04-15	16:43:18	1	1	1	USRTblock	1	USRT	94	600000	#ff0000	10pct	1	50pct	50pct	6000	466567	472577	466295	57	472862	285	0	3	92
6.1.1	win	2020-04-15	16:43:18	1	1	1	USRTblock	1	USRT	95	600000	#ff0000	10pct	1	50pct	50pct	4000	472866	476876	472577	57	477144	268	0	3	93
6.1.1	win	2020-04-15	16:43:18	1	1	1	USRTblock	1	USRT	96	600000	#ff0000	10pct	1	50pct	50pct	6000	477148	483159	476876	57	483412	253	0	3	94
6.1.1	win	2020-04-15	16:43:18	1	1	1	USRTblock	1	USRT	97	600000	#ff0000	10pct	1	50pct	50pct	3000	483415	486425	483159	57	486788	363	0	3	95
6.1.1	win	2020-04-15	16:43:18	1	1	1	USRTblock	1	USRT	98	600000	#ff0000	10pct	1	50pct	50pct	3000	486792	489808	486425	57	490083	275	0	3	96
6.1.1	win	2020-04-15	16:43:18	1	1	1	USRTblock	1	USRT	99	600000	#ff0000	10pct	1	50pct	50pct	7000	490087	497091	489808	57	497401	310	0	3	97
6.1.1	win	2020-04-15	16:43:18	1	1	1	USRTblock	1	USRT	100	600000	#ff0000	10pct	1	50pct	50pct	5000	497404	502424	497091	57	502736	312	0	3	98
6.1.1	win	2020-04-15	16:43:18	1	1	1	USRTblock	1	USRT	101	600000	#ff0000	10pct	1	50pct	50pct	4000	502740	506757	502424	57	507028	271	0	3	99
6.1.1	win	2020-04-15	16:43:18	1	1	1	USRTblock	1	USRT	102	600000	#ff0000	10pct	1	50pct	50pct	6000	507031	513040	506757	57	513331	291	0	3	100
6.1.1	win	2020-04-15	16:43:18	1	1	1	USRTblock	1	USRT	103	600000	#ff0000	10pct	1	50pct	50pct	4000	513335	517356	513040	57	517815	459	0	3	101
6.1.1	win	2020-04-15	16:43:18	1	1	1	USRTblock	1	USRT	104	600000	#ff0000	10pct	1	50pct	50pct	2000	517819	519839	517356	57	520245	406	0	3	102
6.1.1	win	2020-04-15	16:43:18	1	1	1	USRTblock	1	USRT	105	600000	#ff0000	10pct	1	50pct	50pct	4000	520248	524255	519839	57	524656	401	0	3	103
6.1.1	win	2020-04-15	16:43:18	1	1	1	USRTblock	1	USRT	106	600000	#ff0000	10pct	1	50pct	50pct	4000	524660	528672	524255	57	529063	391	0	3	104
6.1.1	win	2020-04-15	16:43:18	1	1	1	USRTblock	1	USRT	107	600000	#ff0000	10pct	1	50pct	50pct	6000	529066	535088	528672	57	535517	429	0	3	105
6.1.1	win	2020-04-15	16:43:18	1	1	1	USRTblock	1	USRT	108	600000	#ff0000	10pct	1	50pct	50pct	5000	535521	540537	535088	57	540907	370	0	3	106
6.1.1	win	2020-04-15	16:43:18	1	1	1	USRTblock	1	USRT	109	600000	#ff0000	10pct	1	50pct	50pct	4000	540911	544920	540537	57	545306	386	0	3	107
6.1.1	win	2020-04-15	16:43:18	1	1	1	USRTblock	1	USRT	110	600000	#ff0000	10pct	1	50pct	50pct	4000	545309	549319	544920	57	549659	340	0	3	108
6.1.1	win	2020-04-15	16:43:18	1	1	1	USRTblock	1	USRT	111	600000	#ff0000	10pct	1	50pct	50pct	7000	549663	556669	549319	57	557186	517	0	3	109
6.1.1	win	2020-04-15	16:43:18	1	1	1	USRTblock	1	USRT	112	600000	#ff0000	10pct	1	50pct	50pct	2000	557190	559201	556669	57	559596	395	0	3	110
6.1.1	win	2020-04-15	16:43:18	1	1	1	USRTblock	1	USRT	113	600000	#ff0000	10pct	1	50pct	50pct	5000	559599	564618	559201	57	565030	412	0	3	111
6.1.1	win	2020-04-15	16:43:18	1	1	1	USRTblock	1	USRT	114	600000	#ff0000	10pct	1	50pct	50pct	2000	565033	567051	564618	57	567411	360	0	3	112
6.1.1	win	2020-04-15	16:43:18	1	1	1	USRTblock	1	USRT	115	600000	#ff0000	10pct	1	50pct	50pct	6000	567415	573434	567051	57	573703	269	0	3	113
6.1.1	win	2020-04-15	16:43:18	1	1	1	USRTblock	1	USRT	116	600000	#ff0000	10pct	1	50pct	50pct	5000	573707	578717	573434	57	579010	293	0	3	114
6.1.1	win	2020-04-15	16:43:18	1	1	1	USRTblock	1	USRT	117	600000	#ff0000	10pct	1	50pct	50pct	7000	579014	586033	578717	57	586306	273	0	3	115
6.1.1	win	2020-04-15	16:43:18	1	1	1	USRTblock	1	USRT	118	600000	#ff0000	10pct	1	50pct	50pct	7000	586310	593315	586033	57	593571	256	0	3	116
6.1.1	win	2020-04-15	16:43:18	1	1	1	USRTblock	1	USRT	119	600000	#ff0000	10pct	1	50pct	50pct	2000	593575	595581	593315	57	596063	482	0	3	117
6.1.1	win	2020-04-15	16:43:18	1	1	1	USRTblock	1	USRT	120	600000	#ff0000	10pct	1	50pct	50pct	8000	596067	-1	595581	57	600917	0	1	4	118
6.1.1	win	2020-04-15	16:43:18	1	1	1	USRTblock	1	USRT	121	600000	#ff0000	10pct	1	50pct	50pct	4000	600920	-1	-1	0	600998	0	1	5	119
