build	computer.platform	date	time	subject	group	sessionid	blockcode	blocknum	trialcode	trialnum	testduration	targetcolor	targetsize	fixed	targetx	targety	stiminterval	trialStart	shape.targetcircle.timestamp	lastCircleTimestamp	response	rt_elapsed	rt	EarlyResponse	countEarlyResponses	countResponses
6.1.1	win	2020-04-17	21:41:58	1	1	1	USRTblock	1	USRT	3	600000	#ff0000	10pct	1	50pct	50pct	3000	3184	6192	2422	57	6437	245	0	0	1
6.1.1	win	2020-04-17	21:41:58	1	1	1	USRTblock	1	USRT	4	600000	#ff0000	10pct	1	50pct	50pct	2000	6453	8458	6192	57	8719	261	0	0	2
6.1.1	win	2020-04-17	21:41:58	1	1	1	USRTblock	1	USRT	5	600000	#ff0000	10pct	1	50pct	50pct	5000	8723	-1	8458	57	12009	0	1	1	3
6.1.1	win	2020-04-17	21:41:58	1	1	1	USRTblock	1	USRT	6	600000	#ff0000	10pct	1	50pct	50pct	4000	12013	16024	-1	57	16277	253	0	1	4
6.1.1	win	2020-04-17	21:41:58	1	1	1	USRTblock	1	USRT	7	600000	#ff0000	10pct	1	50pct	50pct	8000	16280	24290	16024	57	24583	293	0	1	5
6.1.1	win	2020-04-17	21:41:58	1	1	1	USRTblock	1	USRT	8	600000	#ff0000	10pct	1	50pct	50pct	8000	24587	32606	24290	57	32875	269	0	1	6
6.1.1	win	2020-04-17	21:41:58	1	1	1	USRTblock	1	USRT	9	600000	#ff0000	10pct	1	50pct	50pct	8000	32878	40889	32606	57	41181	292	0	1	7
6.1.1	win	2020-04-17	21:41:58	1	1	1	USRTblock	1	USRT	10	600000	#ff0000	10pct	1	50pct	50pct	3000	41185	44205	40889	57	44570	365	0	1	8
6.1.1	win	2020-04-17	21:41:58	1	1	1	USRTblock	1	USRT	11	600000	#ff0000	10pct	1	50pct	50pct	4000	44574	48588	44205	57	48871	283	0	1	9
6.1.1	win	2020-04-17	21:41:58	1	1	1	USRTblock	1	USRT	12	600000	#ff0000	10pct	1	50pct	50pct	4000	48875	52887	48588	57	53199	312	0	1	10
6.1.1	win	2020-04-17	21:41:58	1	1	1	USRTblock	1	USRT	13	600000	#ff0000	10pct	1	50pct	50pct	4000	53203	57220	52887	57	57570	350	0	1	11
6.1.1	win	2020-04-17	21:41:58	1	1	1	USRTblock	1	USRT	14	600000	#ff0000	10pct	1	50pct	50pct	4000	57574	61586	57220	57	61864	278	0	1	12
6.1.1	win	2020-04-17	21:41:58	1	1	1	USRTblock	1	USRT	15	600000	#ff0000	10pct	1	50pct	50pct	5000	61892	66902	61586	57	67184	282	0	1	13
6.1.1	win	2020-04-17	21:41:58	1	1	1	USRTblock	1	USRT	16	600000	#ff0000	10pct	1	50pct	50pct	4000	67188	71202	66902	57	71570	368	0	1	14
6.1.1	win	2020-04-17	21:41:58	1	1	1	USRTblock	1	USRT	17	600000	#ff0000	10pct	1	50pct	50pct	7000	71573	78585	71202	57	78875	290	0	1	15
6.1.1	win	2020-04-17	21:41:58	1	1	1	USRTblock	1	USRT	18	600000	#ff0000	10pct	1	50pct	50pct	3000	78879	81884	78585	57	82224	340	0	1	16
6.1.1	win	2020-04-17	21:41:58	1	1	1	USRTblock	1	USRT	19	600000	#ff0000	10pct	1	50pct	50pct	6000	82228	88233	81884	57	88523	290	0	1	17
6.1.1	win	2020-04-17	21:41:58	1	1	1	USRTblock	1	USRT	20	600000	#ff0000	10pct	1	50pct	50pct	8000	88527	96533	88233	57	96831	298	0	1	18
6.1.1	win	2020-04-17	21:41:58	1	1	1	USRTblock	1	USRT	21	600000	#ff0000	10pct	1	50pct	50pct	7000	96834	103849	96533	57	104138	289	0	1	19
6.1.1	win	2020-04-17	21:41:58	1	1	1	USRTblock	1	USRT	22	600000	#ff0000	10pct	1	50pct	50pct	2000	104142	106148	103849	57	106476	328	0	1	20
6.1.1	win	2020-04-17	21:41:58	1	1	1	USRTblock	1	USRT	23	600000	#ff0000	10pct	1	50pct	50pct	5000	106479	111498	106148	57	111772	274	0	1	21
6.1.1	win	2020-04-17	21:41:58	1	1	1	USRTblock	1	USRT	24	600000	#ff0000	10pct	1	50pct	50pct	6000	111776	117781	111498	57	118062	281	0	1	22
6.1.1	win	2020-04-17	21:41:58	1	1	1	USRTblock	1	USRT	25	600000	#ff0000	10pct	1	50pct	50pct	8000	118065	126080	117781	57	126407	327	0	1	23
6.1.1	win	2020-04-17	21:41:58	1	1	1	USRTblock	1	USRT	26	600000	#ff0000	10pct	1	50pct	50pct	5000	126410	131429	126080	57	131707	278	0	1	24
6.1.1	win	2020-04-17	21:41:58	1	1	1	USRTblock	1	USRT	27	600000	#ff0000	10pct	1	50pct	50pct	3000	131711	134728	131429	57	135034	306	0	1	25
6.1.1	win	2020-04-17	21:41:58	1	1	1	USRTblock	1	USRT	28	600000	#ff0000	10pct	1	50pct	50pct	3000	135038	138045	134728	57	138346	301	0	1	26
6.1.1	win	2020-04-17	21:41:58	1	1	1	USRTblock	1	USRT	29	600000	#ff0000	10pct	1	50pct	50pct	7000	138350	145362	138045	57	145673	311	0	1	27
6.1.1	win	2020-04-17	21:41:58	1	1	1	USRTblock	1	USRT	30	600000	#ff0000	10pct	1	50pct	50pct	3000	145676	148694	145362	57	148995	301	0	1	28
6.1.1	win	2020-04-17	21:41:58	1	1	1	USRTblock	1	USRT	31	600000	#ff0000	10pct	1	50pct	50pct	6000	148998	155010	148694	57	155275	265	0	1	29
6.1.1	win	2020-04-17	21:41:58	1	1	1	USRTblock	1	USRT	32	600000	#ff0000	10pct	1	50pct	50pct	4000	155278	159292	155010	57	159583	291	0	1	30
6.1.1	win	2020-04-17	21:41:58	1	1	1	USRTblock	1	USRT	33	600000	#ff0000	10pct	1	50pct	50pct	7000	159587	166593	159292	57	166862	269	0	1	31
6.1.1	win	2020-04-17	21:41:58	1	1	1	USRTblock	1	USRT	34	600000	#ff0000	10pct	1	50pct	50pct	6000	166866	172875	166593	57	173248	373	0	1	32
6.1.1	win	2020-04-17	21:41:58	1	1	1	USRTblock	1	USRT	35	600000	#ff0000	10pct	1	50pct	50pct	4000	173251	177258	172875	57	177617	359	0	1	33
6.1.1	win	2020-04-17	21:41:58	1	1	1	USRTblock	1	USRT	36	600000	#ff0000	10pct	1	50pct	50pct	5000	177621	-1	177258	57	177732	0	1	2	34
6.1.1	win	2020-04-17	21:41:58	1	1	1	USRTblock	1	USRT	37	600000	#ff0000	10pct	1	50pct	50pct	8000	177737	185758	-1	57	186049	291	0	2	35
6.1.1	win	2020-04-17	21:41:58	1	1	1	USRTblock	1	USRT	38	600000	#ff0000	10pct	1	50pct	50pct	6000	186053	192073	185758	57	192360	287	0	2	36
6.1.1	win	2020-04-17	21:41:58	1	1	1	USRTblock	1	USRT	39	600000	#ff0000	10pct	1	50pct	50pct	2000	192364	194373	192073	57	194680	307	0	2	37
6.1.1	win	2020-04-17	21:41:58	1	1	1	USRTblock	1	USRT	40	600000	#ff0000	10pct	1	50pct	50pct	5000	194684	199689	194373	57	199945	256	0	2	38
6.1.1	win	2020-04-17	21:41:58	1	1	1	USRTblock	1	USRT	41	600000	#ff0000	10pct	1	50pct	50pct	6000	199948	205955	199689	57	206224	269	0	2	39
6.1.1	win	2020-04-17	21:41:58	1	1	1	USRTblock	1	USRT	42	600000	#ff0000	10pct	1	50pct	50pct	3000	206228	209238	205955	57	209521	283	0	2	40
6.1.1	win	2020-04-17	21:41:58	1	1	1	USRTblock	1	USRT	43	600000	#ff0000	10pct	1	50pct	50pct	3000	209525	212537	209238	57	212841	304	0	2	41
6.1.1	win	2020-04-17	21:41:58	1	1	1	USRTblock	1	USRT	44	600000	#ff0000	10pct	1	50pct	50pct	3000	212845	215854	212537	57	216143	289	0	2	42
6.1.1	win	2020-04-17	21:41:58	1	1	1	USRTblock	1	USRT	45	600000	#ff0000	10pct	1	50pct	50pct	4000	216146	220153	215854	57	220435	282	0	2	43
6.1.1	win	2020-04-17	21:41:58	1	1	1	USRTblock	1	USRT	46	600000	#ff0000	10pct	1	50pct	50pct	4000	220440	224453	220153	57	224772	319	0	2	44
6.1.1	win	2020-04-17	21:41:58	1	1	1	USRTblock	1	USRT	47	600000	#ff0000	10pct	1	50pct	50pct	2000	224776	226786	224453	57	227166	380	0	2	45
6.1.1	win	2020-04-17	21:41:58	1	1	1	USRTblock	1	USRT	48	600000	#ff0000	10pct	1	50pct	50pct	4000	227170	231186	226786	57	231468	282	0	2	46
6.1.1	win	2020-04-17	21:41:58	1	1	1	USRTblock	1	USRT	49	600000	#ff0000	10pct	1	50pct	50pct	3000	231472	234485	231186	57	234743	258	0	2	47
6.1.1	win	2020-04-17	21:41:58	1	1	1	USRTblock	1	USRT	50	600000	#ff0000	10pct	1	50pct	50pct	6000	234746	240752	234485	57	241009	257	0	2	48
6.1.1	win	2020-04-17	21:41:58	1	1	1	USRTblock	1	USRT	51	600000	#ff0000	10pct	1	50pct	50pct	2000	241012	243018	240752	57	243389	371	0	2	49
6.1.1	win	2020-04-17	21:41:58	1	1	1	USRTblock	1	USRT	52	600000	#ff0000	10pct	1	50pct	50pct	3000	243392	246401	243018	57	246697	296	0	2	50
6.1.1	win	2020-04-17	21:41:58	1	1	1	USRTblock	1	USRT	53	600000	#ff0000	10pct	1	50pct	50pct	2000	246701	248717	246401	57	249107	390	0	2	51
6.1.1	win	2020-04-17	21:41:58	1	1	1	USRTblock	1	USRT	54	600000	#ff0000	10pct	1	50pct	50pct	7000	249110	256117	248717	57	256408	291	0	2	52
6.1.1	win	2020-04-17	21:41:58	1	1	1	USRTblock	1	USRT	55	600000	#ff0000	10pct	1	50pct	50pct	5000	256411	261416	256117	57	261711	295	0	2	53
6.1.1	win	2020-04-17	21:41:58	1	1	1	USRTblock	1	USRT	56	600000	#ff0000	10pct	1	50pct	50pct	4000	261714	265732	261416	57	266004	272	0	2	54
6.1.1	win	2020-04-17	21:41:58	1	1	1	USRTblock	1	USRT	57	600000	#ff0000	10pct	1	50pct	50pct	7000	266008	273015	265732	57	273305	290	0	2	55
6.1.1	win	2020-04-17	21:41:58	1	1	1	USRTblock	1	USRT	58	600000	#ff0000	10pct	1	50pct	50pct	6000	273309	279314	273015	57	279625	311	0	2	56
6.1.1	win	2020-04-17	21:41:58	1	1	1	USRTblock	1	USRT	59	600000	#ff0000	10pct	1	50pct	50pct	4000	279628	283647	279314	57	283983	336	0	2	57
6.1.1	win	2020-04-17	21:41:58	1	1	1	USRTblock	1	USRT	60	600000	#ff0000	10pct	1	50pct	50pct	3000	283987	286997	283647	57	287305	308	0	2	58
6.1.1	win	2020-04-17	21:41:58	1	1	1	USRTblock	1	USRT	61	600000	#ff0000	10pct	1	50pct	50pct	5000	287308	292313	286997	57	292588	275	0	2	59
6.1.1	win	2020-04-17	21:41:58	1	1	1	USRTblock	1	USRT	62	600000	#ff0000	10pct	1	50pct	50pct	5000	292592	297613	292313	57	297933	320	0	2	60
6.1.1	win	2020-04-17	21:41:58	1	1	1	USRTblock	1	USRT	63	600000	#ff0000	10pct	1	50pct	50pct	3000	297936	300946	297613	57	301261	315	0	2	61
6.1.1	win	2020-04-17	21:41:58	1	1	1	USRTblock	1	USRT	64	600000	#ff0000	10pct	1	50pct	50pct	5000	301265	306278	300946	57	306555	277	0	2	62
6.1.1	win	2020-04-17	21:41:58	1	1	1	USRTblock	1	USRT	65	600000	#ff0000	10pct	1	50pct	50pct	5000	306560	311578	306278	57	311938	360	0	2	63
6.1.1	win	2020-04-17	21:41:58	1	1	1	USRTblock	1	USRT	66	600000	#ff0000	10pct	1	50pct	50pct	2000	311941	313960	311578	57	314308	348	0	2	64
6.1.1	win	2020-04-17	21:41:58	1	1	1	USRTblock	1	USRT	67	600000	#ff0000	10pct	1	50pct	50pct	7000	314311	321327	313960	57	321608	281	0	2	65
6.1.1	win	2020-04-17	21:41:58	1	1	1	USRTblock	1	USRT	68	600000	#ff0000	10pct	1	50pct	50pct	3000	321611	324626	321327	57	324892	266	0	2	66
6.1.1	win	2020-04-17	21:41:58	1	1	1	USRTblock	1	USRT	69	600000	#ff0000	10pct	1	50pct	50pct	2000	324895	326910	324626	57	327269	359	0	2	67
6.1.1	win	2020-04-17	21:41:58	1	1	1	USRTblock	1	USRT	70	600000	#ff0000	10pct	1	50pct	50pct	6000	327272	333292	326910	57	333543	251	0	2	68
6.1.1	win	2020-04-17	21:41:58	1	1	1	USRTblock	1	USRT	71	600000	#ff0000	10pct	1	50pct	50pct	7000	333547	340558	333292	57	340863	305	0	2	69
6.1.1	win	2020-04-17	21:41:58	1	1	1	USRTblock	1	USRT	72	600000	#ff0000	10pct	1	50pct	50pct	8000	340866	348874	340558	57	349196	322	0	2	70
6.1.1	win	2020-04-17	21:41:58	1	1	1	USRTblock	1	USRT	73	600000	#ff0000	10pct	1	50pct	50pct	6000	349199	355207	348874	57	355514	307	0	2	71
6.1.1	win	2020-04-17	21:41:58	1	1	1	USRTblock	1	USRT	74	600000	#ff0000	10pct	1	50pct	50pct	5000	355517	360524	355207	57	360827	303	0	2	72
6.1.1	win	2020-04-17	21:41:58	1	1	1	USRTblock	1	USRT	75	600000	#ff0000	10pct	1	50pct	50pct	2000	360831	362839	360524	57	363353	514	0	2	73
6.1.1	win	2020-04-17	21:41:58	1	1	1	USRTblock	1	USRT	76	600000	#ff0000	10pct	1	50pct	50pct	3000	363405	366422	362839	57	366703	281	0	2	74
6.1.1	win	2020-04-17	21:41:58	1	1	1	USRTblock	1	USRT	77	600000	#ff0000	10pct	1	50pct	50pct	7000	366706	373722	366422	57	374011	289	0	2	75
6.1.1	win	2020-04-17	21:41:58	1	1	1	USRTblock	1	USRT	78	600000	#ff0000	10pct	1	50pct	50pct	3000	374015	377022	373722	57	377363	341	0	2	76
6.1.1	win	2020-04-17	21:41:58	1	1	1	USRTblock	1	USRT	79	600000	#ff0000	10pct	1	50pct	50pct	6000	377367	383388	377022	57	383684	296	0	2	77
6.1.1	win	2020-04-17	21:41:58	1	1	1	USRTblock	1	USRT	80	600000	#ff0000	10pct	1	50pct	50pct	2000	383688	385704	383388	57	386004	300	0	2	78
6.1.1	win	2020-04-17	21:41:58	1	1	1	USRTblock	1	USRT	81	600000	#ff0000	10pct	1	50pct	50pct	6000	386008	392020	385704	57	392352	332	0	2	79
6.1.1	win	2020-04-17	21:41:58	1	1	1	USRTblock	1	USRT	82	600000	#ff0000	10pct	1	50pct	50pct	3000	392356	395370	392020	57	395686	316	0	2	80
6.1.1	win	2020-04-17	21:41:58	1	1	1	USRTblock	1	USRT	83	600000	#ff0000	10pct	1	50pct	50pct	2000	395690	397702	395370	57	397987	285	0	2	81
6.1.1	win	2020-04-17	21:41:58	1	1	1	USRTblock	1	USRT	84	600000	#ff0000	10pct	1	50pct	50pct	5000	397990	403002	397702	57	403341	339	0	2	82
6.1.1	win	2020-04-17	21:41:58	1	1	1	USRTblock	1	USRT	85	600000	#ff0000	10pct	1	50pct	50pct	7000	403345	-1	403002	57	403418	0	1	3	83
6.1.1	win	2020-04-17	21:41:58	1	1	1	USRTblock	1	USRT	86	600000	#ff0000	10pct	1	50pct	50pct	8000	403423	411435	-1	57	411744	309	0	3	84
6.1.1	win	2020-04-17	21:41:58	1	1	1	USRTblock	1	USRT	87	600000	#ff0000	10pct	1	50pct	50pct	4000	411749	415768	411435	57	416070	302	0	3	85
6.1.1	win	2020-04-17	21:41:58	1	1	1	USRTblock	1	USRT	88	600000	#ff0000	10pct	1	50pct	50pct	4000	416074	420084	415768	57	420432	348	0	3	86
6.1.1	win	2020-04-17	21:41:58	1	1	1	USRTblock	1	USRT	89	600000	#ff0000	10pct	1	50pct	50pct	7000	420436	427450	420084	57	427743	293	0	3	87
6.1.1	win	2020-04-17	21:41:58	1	1	1	USRTblock	1	USRT	90	600000	#ff0000	10pct	1	50pct	50pct	6000	427747	433766	427450	57	434102	336	0	3	88
6.1.1	win	2020-04-17	21:41:58	1	1	1	USRTblock	1	USRT	91	600000	#ff0000	10pct	1	50pct	50pct	5000	434106	439116	433766	57	439383	267	0	3	89
6.1.1	win	2020-04-17	21:41:58	1	1	1	USRTblock	1	USRT	92	600000	#ff0000	10pct	1	50pct	50pct	4000	439387	443398	439116	57	443691	293	0	3	90
6.1.1	win	2020-04-17	21:41:58	1	1	1	USRTblock	1	USRT	93	600000	#ff0000	10pct	1	50pct	50pct	7000	443695	450714	443398	57	450988	274	0	3	91
6.1.1	win	2020-04-17	21:41:58	1	1	1	USRTblock	1	USRT	94	600000	#ff0000	10pct	1	50pct	50pct	7000	450991	458014	450714	57	458287	273	0	3	92
6.1.1	win	2020-04-17	21:41:58	1	1	1	USRTblock	1	USRT	95	600000	#ff0000	10pct	1	50pct	50pct	4000	458291	462313	458014	57	462623	310	0	3	93
6.1.1	win	2020-04-17	21:41:58	1	1	1	USRTblock	1	USRT	96	600000	#ff0000	10pct	1	50pct	50pct	4000	462627	466647	462313	57	466952	305	0	3	94
6.1.1	win	2020-04-17	21:41:58	1	1	1	USRTblock	1	USRT	97	600000	#ff0000	10pct	1	50pct	50pct	6000	466959	472979	466647	57	473264	285	0	3	95
6.1.1	win	2020-04-17	21:41:58	1	1	1	USRTblock	1	USRT	98	600000	#ff0000	10pct	1	50pct	50pct	6000	473269	479278	472979	57	479554	276	0	3	96
6.1.1	win	2020-04-17	21:41:58	1	1	1	USRTblock	1	USRT	99	600000	#ff0000	10pct	1	50pct	50pct	8000	479558	487578	479278	57	487854	276	0	3	97
6.1.1	win	2020-04-17	21:41:58	1	1	1	USRTblock	1	USRT	100	600000	#ff0000	10pct	1	50pct	50pct	7000	487858	494876	487578	57	495167	291	0	3	98
6.1.1	win	2020-04-17	21:41:58	1	1	1	USRTblock	1	USRT	101	600000	#ff0000	10pct	1	50pct	50pct	8000	495171	503192	494876	57	503500	308	0	3	99
6.1.1	win	2020-04-17	21:41:58	1	1	1	USRTblock	1	USRT	102	600000	#ff0000	10pct	1	50pct	50pct	6000	503504	509526	503192	57	509890	364	0	3	100
6.1.1	win	2020-04-17	21:41:58	1	1	1	USRTblock	1	USRT	103	600000	#ff0000	10pct	1	50pct	50pct	5000	509894	514908	509526	57	515255	347	0	3	101
6.1.1	win	2020-04-17	21:41:58	1	1	1	USRTblock	1	USRT	104	600000	#ff0000	10pct	1	50pct	50pct	3000	515259	518273	514908	57	518642	369	0	3	102
6.1.1	win	2020-04-17	21:41:58	1	1	1	USRTblock	1	USRT	105	600000	#ff0000	10pct	1	50pct	50pct	8000	518646	526657	518273	57	526938	281	0	3	103
6.1.1	win	2020-04-17	21:41:58	1	1	1	USRTblock	1	USRT	106	600000	#ff0000	10pct	1	50pct	50pct	8000	526942	534956	526657	57	535335	379	0	3	104
6.1.1	win	2020-04-17	21:41:58	1	1	1	USRTblock	1	USRT	107	600000	#ff0000	10pct	1	50pct	50pct	4000	535339	539355	534956	57	539678	323	0	3	105
6.1.1	win	2020-04-17	21:41:58	1	1	1	USRTblock	1	USRT	108	600000	#ff0000	10pct	1	50pct	50pct	2000	539681	541688	539355	57	542046	358	0	3	106
6.1.1	win	2020-04-17	21:41:58	1	1	1	USRTblock	1	USRT	109	600000	#ff0000	10pct	1	50pct	50pct	7000	542050	549071	541688	57	549368	297	0	3	107
6.1.1	win	2020-04-17	21:41:58	1	1	1	USRTblock	1	USRT	110	600000	#ff0000	10pct	1	50pct	50pct	8000	549371	557387	549071	57	557717	330	0	3	108
6.1.1	win	2020-04-17	21:41:58	1	1	1	USRTblock	1	USRT	111	600000	#ff0000	10pct	1	50pct	50pct	6000	557720	563736	557387	57	564233	497	0	3	109
6.1.1	win	2020-04-17	21:41:58	1	1	1	USRTblock	1	USRT	112	600000	#ff0000	10pct	1	50pct	50pct	4000	564237	568252	563736	57	568599	347	0	3	110
6.1.1	win	2020-04-17	21:41:58	1	1	1	USRTblock	1	USRT	113	600000	#ff0000	10pct	1	50pct	50pct	2000	568603	570619	568252	57	571011	392	0	3	111
6.1.1	win	2020-04-17	21:41:58	1	1	1	USRTblock	1	USRT	114	600000	#ff0000	10pct	1	50pct	50pct	6000	571015	577035	570619	57	577294	259	0	3	112
6.1.1	win	2020-04-17	21:41:58	1	1	1	USRTblock	1	USRT	115	600000	#ff0000	10pct	1	50pct	50pct	7000	577298	584318	577035	57	584563	245	0	3	113
6.1.1	win	2020-04-17	21:41:58	1	1	1	USRTblock	1	USRT	116	600000	#ff0000	10pct	1	50pct	50pct	8000	584567	592583	584318	57	592888	305	0	3	114
6.1.1	win	2020-04-17	21:41:58	1	1	1	USRTblock	1	USRT	117	600000	#ff0000	10pct	1	50pct	50pct	5000	592892	597899	592583	57	598196	297	0	3	115
6.1.1	win	2020-04-17	21:41:58	1	1	1	USRTblock	1	USRT	118	600000	#ff0000	10pct	1	50pct	50pct	8000	598200	-1	597899	0	598308	0	1	4	116