build	computer.platform	date	time	subject	group	sessionid	blockcode	blocknum	trialcode	trialnum	testduration	targetcolor	targetsize	fixed	targetx	targety	stiminterval	trialStart	shape.targetcircle.timestamp	lastCircleTimestamp	response	rt_elapsed	rt	EarlyResponse	countEarlyResponses	countResponses
6.1.1	win	2020-04-17	07:50:29	1	1	1	USRTblock	1	USRT	3	600000	#ff0000	10pct	1	50pct	50pct	3000	3265	6278	2492	57	6513	235	0	0	1
6.1.1	win	2020-04-17	07:50:29	1	1	1	USRTblock	1	USRT	4	600000	#ff0000	10pct	1	50pct	50pct	8000	6548	-1	6278	57	12163	0	1	1	2
6.1.1	win	2020-04-17	07:50:29	1	1	1	USRTblock	1	USRT	5	600000	#ff0000	10pct	1	50pct	50pct	7000	12167	19178	-1	57	19459	281	0	1	3
6.1.1	win	2020-04-17	07:50:29	1	1	1	USRTblock	1	USRT	6	600000	#ff0000	10pct	1	50pct	50pct	2000	19462	21477	19178	57	21829	352	0	1	4
6.1.1	win	2020-04-17	07:50:29	1	1	1	USRTblock	1	USRT	7	600000	#ff0000	10pct	1	50pct	50pct	3000	21834	24843	21477	57	25136	293	0	1	5
6.1.1	win	2020-04-17	07:50:29	1	1	1	USRTblock	1	USRT	8	600000	#ff0000	10pct	1	50pct	50pct	3000	25140	28160	24843	57	28424	264	0	1	6
6.1.1	win	2020-04-17	07:50:29	1	1	1	USRTblock	1	USRT	9	600000	#ff0000	10pct	1	50pct	50pct	8000	28428	36443	28160	57	36708	265	0	1	7
6.1.1	win	2020-04-17	07:50:29	1	1	1	USRTblock	1	USRT	10	600000	#ff0000	10pct	1	50pct	50pct	5000	36712	41726	36443	57	41994	268	0	1	8
6.1.1	win	2020-04-17	07:50:29	1	1	1	USRTblock	1	USRT	11	600000	#ff0000	10pct	1	50pct	50pct	6000	41997	48008	41726	57	48410	402	0	1	9
6.1.1	win	2020-04-17	07:50:29	1	1	1	USRTblock	1	USRT	12	600000	#ff0000	10pct	1	50pct	50pct	3000	48413	51424	48008	57	51846	422	0	1	10
6.1.1	win	2020-04-17	07:50:29	1	1	1	USRTblock	1	USRT	13	600000	#ff0000	10pct	1	50pct	50pct	8000	51850	59857	51424	57	60175	318	0	1	11
6.1.1	win	2020-04-17	07:50:29	1	1	1	USRTblock	1	USRT	14	600000	#ff0000	10pct	1	50pct	50pct	6000	60178	66189	59857	57	66510	321	0	1	12
6.1.1	win	2020-04-17	07:50:29	1	1	1	USRTblock	1	USRT	15	600000	#ff0000	10pct	1	50pct	50pct	8000	66514	74522	66189	57	74785	263	0	1	13
6.1.1	win	2020-04-17	07:50:29	1	1	1	USRTblock	1	USRT	16	600000	#ff0000	10pct	1	50pct	50pct	2000	74788	76805	74522	57	77127	322	0	1	14
6.1.1	win	2020-04-17	07:50:29	1	1	1	USRTblock	1	USRT	17	600000	#ff0000	10pct	1	50pct	50pct	3000	77130	80138	76805	57	80416	278	0	1	15
6.1.1	win	2020-04-17	07:50:29	1	1	1	USRTblock	1	USRT	18	600000	#ff0000	10pct	1	50pct	50pct	5000	80420	85438	80138	57	85696	258	0	1	16
6.1.1	win	2020-04-17	07:50:29	1	1	1	USRTblock	1	USRT	19	600000	#ff0000	10pct	1	50pct	50pct	8000	85700	93720	85438	57	94024	304	0	1	17
6.1.1	win	2020-04-17	07:50:29	1	1	1	USRTblock	1	USRT	20	600000	#ff0000	10pct	1	50pct	50pct	5000	94029	99036	93720	57	99304	268	0	1	18
6.1.1	win	2020-04-17	07:50:29	1	1	1	USRTblock	1	USRT	21	600000	#ff0000	10pct	1	50pct	50pct	4000	99307	103318	99036	57	103637	319	0	1	19
6.1.1	win	2020-04-17	07:50:29	1	1	1	USRTblock	1	USRT	22	600000	#ff0000	10pct	1	50pct	50pct	7000	103640	110652	103318	57	110916	264	0	1	20
6.1.1	win	2020-04-17	07:50:29	1	1	1	USRTblock	1	USRT	23	600000	#ff0000	10pct	1	50pct	50pct	3000	110920	113934	110652	57	114255	321	0	1	21
6.1.1	win	2020-04-17	07:50:29	1	1	1	USRTblock	1	USRT	24	600000	#ff0000	10pct	1	50pct	50pct	3000	114258	117267	113934	57	117575	308	0	1	22
6.1.1	win	2020-04-17	07:50:29	1	1	1	USRTblock	1	USRT	25	600000	#ff0000	10pct	1	50pct	50pct	5000	117579	122584	117267	57	122817	233	0	1	23
6.1.1	win	2020-04-17	07:50:29	1	1	1	USRTblock	1	USRT	26	600000	#ff0000	10pct	1	50pct	50pct	2000	122821	124833	122584	57	125290	457	0	1	24
6.1.1	win	2020-04-17	07:50:29	1	1	1	USRTblock	1	USRT	27	600000	#ff0000	10pct	1	50pct	50pct	3000	125294	128300	124833	57	128550	250	0	1	25
6.1.1	win	2020-04-17	07:50:29	1	1	1	USRTblock	1	USRT	28	600000	#ff0000	10pct	1	50pct	50pct	7000	128553	135566	128300	57	135840	274	0	1	26
6.1.1	win	2020-04-17	07:50:29	1	1	1	USRTblock	1	USRT	29	600000	#ff0000	10pct	1	50pct	50pct	4000	135844	139865	135566	57	140145	280	0	1	27
6.1.1	win	2020-04-17	07:50:29	1	1	1	USRTblock	1	USRT	30	600000	#ff0000	10pct	1	50pct	50pct	6000	140149	146165	139865	57	146440	275	0	1	28
6.1.1	win	2020-04-17	07:50:29	1	1	1	USRTblock	1	USRT	31	600000	#ff0000	10pct	1	50pct	50pct	6000	146444	152464	146165	57	152749	285	0	1	29
6.1.1	win	2020-04-17	07:50:29	1	1	1	USRTblock	1	USRT	32	600000	#ff0000	10pct	1	50pct	50pct	8000	152752	-1	152464	57	159881	0	1	2	30
6.1.1	win	2020-04-17	07:50:29	1	1	1	USRTblock	1	USRT	33	600000	#ff0000	10pct	1	50pct	50pct	4000	159884	163896	-1	57	164264	368	0	2	31
6.1.1	win	2020-04-17	07:50:29	1	1	1	USRTblock	1	USRT	34	600000	#ff0000	10pct	1	50pct	50pct	8000	164269	172279	163896	57	172547	268	0	2	32
6.1.1	win	2020-04-17	07:50:29	1	1	1	USRTblock	1	USRT	35	600000	#ff0000	10pct	1	50pct	50pct	3000	172550	175562	172279	57	175865	303	0	2	33
6.1.1	win	2020-04-17	07:50:29	1	1	1	USRTblock	1	USRT	36	600000	#ff0000	10pct	1	50pct	50pct	5000	175869	180878	175562	57	181198	320	0	2	34
6.1.1	win	2020-04-17	07:50:29	1	1	1	USRTblock	1	USRT	37	600000	#ff0000	10pct	1	50pct	50pct	6000	181201	187211	180878	57	187635	424	0	2	35
6.1.1	win	2020-04-17	07:50:29	1	1	1	USRTblock	1	USRT	38	600000	#ff0000	10pct	1	50pct	50pct	6000	187640	193660	187211	57	193993	333	0	2	36
6.1.1	win	2020-04-17	07:50:29	1	1	1	USRTblock	1	USRT	39	600000	#ff0000	10pct	1	50pct	50pct	2000	193996	196009	193660	57	196557	548	0	2	37
6.1.1	win	2020-04-17	07:50:29	1	1	1	USRTblock	1	USRT	40	600000	#ff0000	10pct	1	50pct	50pct	2000	196561	198575	196009	57	199133	558	0	2	38
6.1.1	win	2020-04-17	07:50:29	1	1	1	USRTblock	1	USRT	41	600000	#ff0000	10pct	1	50pct	50pct	4000	199137	203142	198575	57	203416	274	0	2	39
6.1.1	win	2020-04-17	07:50:29	1	1	1	USRTblock	1	USRT	42	600000	#ff0000	10pct	1	50pct	50pct	3000	203420	206442	203142	57	206720	278	0	2	40
6.1.1	win	2020-04-17	07:50:29	1	1	1	USRTblock	1	USRT	43	600000	#ff0000	10pct	1	50pct	50pct	3000	206724	209741	206442	57	210006	265	0	2	41
6.1.1	win	2020-04-17	07:50:29	1	1	1	USRTblock	1	USRT	44	600000	#ff0000	10pct	1	50pct	50pct	4000	210010	214024	209741	57	214320	296	0	2	42
6.1.1	win	2020-04-17	07:50:29	1	1	1	USRTblock	1	USRT	45	600000	#ff0000	10pct	1	50pct	50pct	2000	214323	216341	214024	57	216638	297	0	2	43
6.1.1	win	2020-04-17	07:50:29	1	1	1	USRTblock	1	USRT	46	600000	#ff0000	10pct	1	50pct	50pct	3000	216642	219657	216341	57	219966	309	0	2	44
6.1.1	win	2020-04-17	07:50:29	1	1	1	USRTblock	1	USRT	47	600000	#ff0000	10pct	1	50pct	50pct	2000	219970	221990	219657	57	222344	354	0	2	45
6.1.1	win	2020-04-17	07:50:29	1	1	1	USRTblock	1	USRT	48	600000	#ff0000	10pct	1	50pct	50pct	2000	222348	224357	221990	57	224656	299	0	2	46
6.1.1	win	2020-04-17	07:50:29	1	1	1	USRTblock	1	USRT	49	600000	#ff0000	10pct	1	50pct	50pct	6000	224659	230673	224357	57	230971	298	0	2	47
6.1.1	win	2020-04-17	07:50:29	1	1	1	USRTblock	1	USRT	50	600000	#ff0000	10pct	1	50pct	50pct	4000	230975	234990	230673	57	235278	288	0	2	48
6.1.1	win	2020-04-17	07:50:29	1	1	1	USRTblock	1	USRT	51	600000	#ff0000	10pct	1	50pct	50pct	4000	235282	239289	234990	57	239557	268	0	2	49
6.1.1	win	2020-04-17	07:50:29	1	1	1	USRTblock	1	USRT	52	600000	#ff0000	10pct	1	50pct	50pct	3000	239560	242572	239289	57	242826	254	0	2	50
6.1.1	win	2020-04-17	07:50:29	1	1	1	USRTblock	1	USRT	53	600000	#ff0000	10pct	1	50pct	50pct	5000	242829	247838	242572	57	248117	279	0	2	51
6.1.1	win	2020-04-17	07:50:29	1	1	1	USRTblock	1	USRT	54	600000	#ff0000	10pct	1	50pct	50pct	2000	248120	250137	247838	57	250460	323	0	2	52
6.1.1	win	2020-04-17	07:50:29	1	1	1	USRTblock	1	USRT	55	600000	#ff0000	10pct	1	50pct	50pct	3000	250463	253470	250137	57	253771	301	0	2	53
6.1.1	win	2020-04-17	07:50:29	1	1	1	USRTblock	1	USRT	56	600000	#ff0000	10pct	1	50pct	50pct	4000	253775	257787	253470	57	258054	267	0	2	54
6.1.1	win	2020-04-17	07:50:29	1	1	1	USRTblock	1	USRT	57	600000	#ff0000	10pct	1	50pct	50pct	4000	258058	262070	257787	57	262344	274	0	2	55
6.1.1	win	2020-04-17	07:50:29	1	1	1	USRTblock	1	USRT	58	600000	#ff0000	10pct	1	50pct	50pct	8000	262348	270353	262070	57	270626	273	0	2	56
6.1.1	win	2020-04-17	07:50:29	1	1	1	USRTblock	1	USRT	59	600000	#ff0000	10pct	1	50pct	50pct	7000	270629	277635	270353	57	277892	257	0	2	57
6.1.1	win	2020-04-17	07:50:29	1	1	1	USRTblock	1	USRT	60	600000	#ff0000	10pct	1	50pct	50pct	6000	277896	283918	277635	57	284188	270	0	2	58
6.1.1	win	2020-04-17	07:50:29	1	1	1	USRTblock	1	USRT	61	600000	#ff0000	10pct	1	50pct	50pct	8000	284193	292200	283918	57	292498	298	0	2	59
6.1.1	win	2020-04-17	07:50:29	1	1	1	USRTblock	1	USRT	62	600000	#ff0000	10pct	1	50pct	50pct	6000	292502	298516	292200	57	298818	302	0	2	60
6.1.1	win	2020-04-17	07:50:29	1	1	1	USRTblock	1	USRT	63	600000	#ff0000	10pct	1	50pct	50pct	4000	298822	302832	298516	57	303164	332	0	2	61
6.1.1	win	2020-04-17	07:50:29	1	1	1	USRTblock	1	USRT	64	600000	#ff0000	10pct	1	50pct	50pct	7000	303167	310181	302832	57	310549	368	0	2	62
6.1.1	win	2020-04-17	07:50:29	1	1	1	USRTblock	1	USRT	65	600000	#ff0000	10pct	1	50pct	50pct	2000	310553	312564	310181	57	312884	320	0	2	63
6.1.1	win	2020-04-17	07:50:29	1	1	1	USRTblock	1	USRT	66	600000	#ff0000	10pct	1	50pct	50pct	4000	312887	316897	312564	57	317202	305	0	2	64
6.1.1	win	2020-04-17	07:50:29	1	1	1	USRTblock	1	USRT	67	600000	#ff0000	10pct	1	50pct	50pct	6000	317205	323214	316897	57	323500	286	0	2	65
6.1.1	win	2020-04-17	07:50:29	1	1	1	USRTblock	1	USRT	68	600000	#ff0000	10pct	1	50pct	50pct	6000	323504	329513	323214	57	329781	268	0	2	66
6.1.1	win	2020-04-17	07:50:29	1	1	1	USRTblock	1	USRT	69	600000	#ff0000	10pct	1	50pct	50pct	3000	329785	332796	329513	57	333083	287	0	2	67
6.1.1	win	2020-04-17	07:50:29	1	1	1	USRTblock	1	USRT	70	600000	#ff0000	10pct	1	50pct	50pct	2000	333086	335095	332796	57	335516	421	0	2	68
6.1.1	win	2020-04-17	07:50:29	1	1	1	USRTblock	1	USRT	71	600000	#ff0000	10pct	1	50pct	50pct	6000	335520	341529	335095	57	341775	246	0	2	69
6.1.1	win	2020-04-17	07:50:29	1	1	1	USRTblock	1	USRT	72	600000	#ff0000	10pct	1	50pct	50pct	6000	341779	347795	341529	57	348054	259	0	2	70
6.1.1	win	2020-04-17	07:50:29	1	1	1	USRTblock	1	USRT	73	600000	#ff0000	10pct	1	50pct	50pct	5000	348058	353077	347795	57	353377	300	0	2	71
6.1.1	win	2020-04-17	07:50:29	1	1	1	USRTblock	1	USRT	74	600000	#ff0000	10pct	1	50pct	50pct	7000	353381	360393	353077	57	360646	253	0	2	72
6.1.1	win	2020-04-17	07:50:29	1	1	1	USRTblock	1	USRT	75	600000	#ff0000	10pct	1	50pct	50pct	2000	360649	362659	360393	57	362976	317	0	2	73
6.1.1	win	2020-04-17	07:50:29	1	1	1	USRTblock	1	USRT	76	600000	#ff0000	10pct	1	50pct	50pct	2000	362979	364992	362659	57	365283	291	0	2	74
6.1.1	win	2020-04-17	07:50:29	1	1	1	USRTblock	1	USRT	77	600000	#ff0000	10pct	1	50pct	50pct	3000	365286	368292	364992	57	368591	299	0	2	75
6.1.1	win	2020-04-17	07:50:29	1	1	1	USRTblock	1	USRT	78	600000	#ff0000	10pct	1	50pct	50pct	3000	368595	371608	368292	57	372085	477	0	2	76
6.1.1	win	2020-04-17	07:50:29	1	1	1	USRTblock	1	USRT	79	600000	#ff0000	10pct	1	50pct	50pct	8000	372089	380108	371608	57	380450	342	0	2	77
6.1.1	win	2020-04-17	07:50:29	1	1	1	USRTblock	1	USRT	80	600000	#ff0000	10pct	1	50pct	50pct	3000	380453	383474	380108	57	383961	487	0	2	78
6.1.1	win	2020-04-17	07:50:29	1	1	1	USRTblock	1	USRT	81	600000	#ff0000	10pct	1	50pct	50pct	6000	383966	389973	383474	57	390241	268	0	2	79
6.1.1	win	2020-04-17	07:50:29	1	1	1	USRTblock	1	USRT	82	600000	#ff0000	10pct	1	50pct	50pct	3000	390244	393257	389973	57	393532	275	0	2	80
6.1.1	win	2020-04-17	07:50:29	1	1	1	USRTblock	1	USRT	83	600000	#ff0000	10pct	1	50pct	50pct	7000	393535	400555	393257	57	400810	255	0	2	81
6.1.1	win	2020-04-17	07:50:29	1	1	1	USRTblock	1	USRT	84	600000	#ff0000	10pct	1	50pct	50pct	4000	400813	404822	400555	57	405110	288	0	2	82
6.1.1	win	2020-04-17	07:50:29	1	1	1	USRTblock	1	USRT	85	600000	#ff0000	10pct	1	50pct	50pct	5000	405113	410121	404822	57	410409	288	0	2	83
6.1.1	win	2020-04-17	07:50:29	1	1	1	USRTblock	1	USRT	86	600000	#ff0000	10pct	1	50pct	50pct	2000	410412	412421	410121	57	412846	425	0	2	84
6.1.1	win	2020-04-17	07:50:29	1	1	1	USRTblock	1	USRT	87	600000	#ff0000	10pct	1	50pct	50pct	6000	412849	418854	412421	57	419126	272	0	2	85
6.1.1	win	2020-04-17	07:50:29	1	1	1	USRTblock	1	USRT	88	600000	#ff0000	10pct	1	50pct	50pct	2000	419129	421136	418854	57	421433	297	0	2	86
6.1.1	win	2020-04-17	07:50:29	1	1	1	USRTblock	1	USRT	89	600000	#ff0000	10pct	1	50pct	50pct	7000	421437	428454	421136	57	428728	274	0	2	87
6.1.1	win	2020-04-17	07:50:29	1	1	1	USRTblock	1	USRT	90	600000	#ff0000	10pct	1	50pct	50pct	5000	428731	433736	428454	57	434212	476	0	2	88
6.1.1	win	2020-04-17	07:50:29	1	1	1	USRTblock	1	USRT	91	600000	#ff0000	10pct	1	50pct	50pct	5000	434216	439235	433736	57	439515	280	0	2	89
6.1.1	win	2020-04-17	07:50:29	1	1	1	USRTblock	1	USRT	92	600000	#ff0000	10pct	1	50pct	50pct	8000	439518	447535	439235	57	447828	293	0	2	90
6.1.1	win	2020-04-17	07:50:29	1	1	1	USRTblock	1	USRT	93	600000	#ff0000	10pct	1	50pct	50pct	8000	447831	455851	447535	57	456112	261	0	2	91
6.1.1	win	2020-04-17	07:50:29	1	1	1	USRTblock	1	USRT	94	600000	#ff0000	10pct	1	50pct	50pct	5000	456116	461133	455851	57	461410	277	0	2	92
6.1.1	win	2020-04-17	07:50:29	1	1	1	USRTblock	1	USRT	95	600000	#ff0000	10pct	1	50pct	50pct	3000	461413	464432	461133	57	464720	288	0	2	93
6.1.1	win	2020-04-17	07:50:29	1	1	1	USRTblock	1	USRT	96	600000	#ff0000	10pct	1	50pct	50pct	7000	464725	471732	464432	57	472059	327	0	2	94
6.1.1	win	2020-04-17	07:50:29	1	1	1	USRTblock	1	USRT	97	600000	#ff0000	10pct	1	50pct	50pct	3000	472063	475081	471732	57	475457	376	0	2	95
6.1.1	win	2020-04-17	07:50:29	1	1	1	USRTblock	1	USRT	98	600000	#ff0000	10pct	1	50pct	50pct	4000	475461	479481	475081	57	479848	367	0	2	96
6.1.1	win	2020-04-17	07:50:29	1	1	1	USRTblock	1	USRT	99	600000	#ff0000	10pct	1	50pct	50pct	7000	479852	486864	479481	57	487157	293	0	2	97
6.1.1	win	2020-04-17	07:50:29	1	1	1	USRTblock	1	USRT	100	600000	#ff0000	10pct	1	50pct	50pct	8000	487160	495180	486864	57	495460	280	0	2	98
6.1.1	win	2020-04-17	07:50:29	1	1	1	USRTblock	1	USRT	101	600000	#ff0000	10pct	1	50pct	50pct	6000	495464	501479	495180	57	501800	321	0	2	99
6.1.1	win	2020-04-17	07:50:29	1	1	1	USRTblock	1	USRT	102	600000	#ff0000	10pct	1	50pct	50pct	4000	501804	505812	501479	57	506088	276	0	2	100
6.1.1	win	2020-04-17	07:50:29	1	1	1	USRTblock	1	USRT	103	600000	#ff0000	10pct	1	50pct	50pct	8000	506092	514112	505812	57	514392	280	0	2	101
6.1.1	win	2020-04-17	07:50:29	1	1	1	USRTblock	1	USRT	104	600000	#ff0000	10pct	1	50pct	50pct	5000	514396	519410	514112	57	519657	247	0	2	102
6.1.1	win	2020-04-17	07:50:29	1	1	1	USRTblock	1	USRT	105	600000	#ff0000	10pct	1	50pct	50pct	5000	519660	524676	519410	57	525096	420	0	2	103
6.1.1	win	2020-04-17	07:50:29	1	1	1	USRTblock	1	USRT	106	600000	#ff0000	10pct	1	50pct	50pct	7000	525100	532110	524676	57	532420	310	0	2	104
6.1.1	win	2020-04-17	07:50:29	1	1	1	USRTblock	1	USRT	107	600000	#ff0000	10pct	1	50pct	50pct	3000	532425	535442	532110	57	535757	315	0	2	105
6.1.1	win	2020-04-17	07:50:29	1	1	1	USRTblock	1	USRT	108	600000	#ff0000	10pct	1	50pct	50pct	3000	535761	538775	535442	57	539239	464	0	2	106
6.1.1	win	2020-04-17	07:50:29	1	1	1	USRTblock	1	USRT	109	600000	#ff0000	10pct	1	50pct	50pct	3000	539243	542258	538775	57	542571	313	0	2	107
6.1.1	win	2020-04-17	07:50:29	1	1	1	USRTblock	1	USRT	110	600000	#ff0000	10pct	1	50pct	50pct	6000	542576	548591	542258	57	548873	282	0	2	108
6.1.1	win	2020-04-17	07:50:29	1	1	1	USRTblock	1	USRT	111	600000	#ff0000	10pct	1	50pct	50pct	5000	548877	553891	548591	57	554380	489	0	2	109
6.1.1	win	2020-04-17	07:50:29	1	1	1	USRTblock	1	USRT	112	600000	#ff0000	10pct	1	50pct	50pct	5000	554383	559390	553891	57	559755	365	0	2	110
6.1.1	win	2020-04-17	07:50:29	1	1	1	USRTblock	1	USRT	113	600000	#ff0000	10pct	1	50pct	50pct	2000	559759	561772	559390	57	562363	591	0	2	111
6.1.1	win	2020-04-17	07:50:29	1	1	1	USRTblock	1	USRT	114	600000	#ff0000	10pct	1	50pct	50pct	2000	562366	564373	561772	57	564767	394	0	2	112
6.1.1	win	2020-04-17	07:50:29	1	1	1	USRTblock	1	USRT	115	600000	#ff0000	10pct	1	50pct	50pct	4000	564771	568789	564373	57	569099	310	0	2	113
6.1.1	win	2020-04-17	07:50:29	1	1	1	USRTblock	1	USRT	116	600000	#ff0000	10pct	1	50pct	50pct	4000	569103	573122	568789	57	573579	457	0	2	114
6.1.1	win	2020-04-17	07:50:29	1	1	1	USRTblock	1	USRT	117	600000	#ff0000	10pct	1	50pct	50pct	8000	573583	581588	573122	57	581856	268	0	2	115
6.1.1	win	2020-04-17	07:50:29	1	1	1	USRTblock	1	USRT	118	600000	#ff0000	10pct	1	50pct	50pct	6000	581860	587890	581588	57	588166	276	0	2	116
6.1.1	win	2020-04-17	07:50:29	1	1	1	USRTblock	1	USRT	119	600000	#ff0000	10pct	1	50pct	50pct	5000	588170	593186	587890	57	593452	266	0	2	117
6.1.1	win	2020-04-17	07:50:29	1	1	1	USRTblock	1	USRT	120	600000	#ff0000	10pct	1	50pct	50pct	3000	593456	596469	593186	57	596734	265	0	2	118
6.1.1	win	2020-04-17	07:50:29	1	1	1	USRTblock	1	USRT	121	600000	#ff0000	10pct	1	50pct	50pct	4000	596739	600752	596469	57	601035	283	0	2	119
6.1.1	win	2020-04-17	07:50:29	1	1	1	USRTblock	1	USRT	122	600000	#ff0000	10pct	1	50pct	50pct	3000	601038	-1	600752	0	601148	0	1	3	120
