build	computer.platform	date	time	subject	group	sessionid	blockcode	blocknum	trialcode	trialnum	testduration	targetcolor	targetsize	fixed	targetx	targety	stiminterval	trialStart	shape.targetcircle.timestamp	lastCircleTimestamp	response	rt_elapsed	rt	EarlyResponse	countEarlyResponses	countResponses
6.1.1	win	2020-04-15	16:06:59	1	1	1	USRTblock	1	USRT	3	600000	#ff0000	10pct	1	50pct	50pct	4000	8244	12261	7324	57	12527	266	0	0	1
6.1.1	win	2020-04-15	16:06:59	1	1	1	USRTblock	1	USRT	4	600000	#ff0000	10pct	1	50pct	50pct	4000	12587	16601	12261	57	16807	206	0	0	2
6.1.1	win	2020-04-15	16:06:59	1	1	1	USRTblock	1	USRT	5	600000	#ff0000	10pct	1	50pct	50pct	2000	16814	18828	16601	57	19084	256	0	0	3
6.1.1	win	2020-04-15	16:06:59	1	1	1	USRTblock	1	USRT	6	600000	#ff0000	10pct	1	50pct	50pct	5000	19110	24127	18828	57	24404	277	0	0	4
6.1.1	win	2020-04-15	16:06:59	1	1	1	USRTblock	1	USRT	7	600000	#ff0000	10pct	1	50pct	50pct	5000	24408	29426	24127	57	29687	261	0	0	5
6.1.1	win	2020-04-15	16:06:59	1	1	1	USRTblock	1	USRT	8	600000	#ff0000	10pct	1	50pct	50pct	4000	29711	33727	29426	57	33966	239	0	0	6
6.1.1	win	2020-04-15	16:06:59	1	1	1	USRTblock	1	USRT	9	600000	#ff0000	10pct	1	50pct	50pct	8000	33970	41991	33727	57	42234	243	0	0	7
6.1.1	win	2020-04-15	16:06:59	1	1	1	USRTblock	1	USRT	10	600000	#ff0000	10pct	1	50pct	50pct	5000	42238	47257	41991	57	47484	227	0	0	8
6.1.1	win	2020-04-15	16:06:59	1	1	1	USRTblock	1	USRT	11	600000	#ff0000	10pct	1	50pct	50pct	7000	47488	54506	47257	57	54741	235	0	0	9
6.1.1	win	2020-04-15	16:06:59	1	1	1	USRTblock	1	USRT	12	600000	#ff0000	10pct	1	50pct	50pct	5000	54744	59755	54506	57	59998	243	0	0	10
6.1.1	win	2020-04-15	16:06:59	1	1	1	USRTblock	1	USRT	13	600000	#ff0000	10pct	1	50pct	50pct	5000	60002	65022	59755	57	65353	331	0	0	11
6.1.1	win	2020-04-15	16:06:59	1	1	1	USRTblock	1	USRT	14	600000	#ff0000	10pct	1	50pct	50pct	5000	65356	70371	65022	57	70779	408	0	0	12
6.1.1	win	2020-04-15	16:06:59	1	1	1	USRTblock	1	USRT	15	600000	#ff0000	10pct	1	50pct	50pct	4000	70783	74804	70371	57	75189	385	0	0	13
6.1.1	win	2020-04-15	16:06:59	1	1	1	USRTblock	1	USRT	16	600000	#ff0000	10pct	1	50pct	50pct	2000	75192	77203	74804	57	77457	254	0	0	14
6.1.1	win	2020-04-15	16:06:59	1	1	1	USRTblock	1	USRT	17	600000	#ff0000	10pct	1	50pct	50pct	7000	77460	84470	77203	57	84744	274	0	0	15
6.1.1	win	2020-04-15	16:06:59	1	1	1	USRTblock	1	USRT	18	600000	#ff0000	10pct	1	50pct	50pct	4000	84748	88769	84470	57	89084	315	0	0	16
6.1.1	win	2020-04-15	16:06:59	1	1	1	USRTblock	1	USRT	19	600000	#ff0000	10pct	1	50pct	50pct	5000	89087	94102	88769	57	94404	302	0	0	17
6.1.1	win	2020-04-15	16:06:59	1	1	1	USRTblock	1	USRT	20	600000	#ff0000	10pct	1	50pct	50pct	8000	94408	102418	94102	57	102707	289	0	0	18
6.1.1	win	2020-04-15	16:06:59	1	1	1	USRTblock	1	USRT	21	600000	#ff0000	10pct	1	50pct	50pct	3000	102711	105717	102418	57	106051	334	0	0	19
6.1.1	win	2020-04-15	16:06:59	1	1	1	USRTblock	1	USRT	22	600000	#ff0000	10pct	1	50pct	50pct	4000	106055	110067	105717	57	110383	316	0	0	20
6.1.1	win	2020-04-15	16:06:59	1	1	1	USRTblock	1	USRT	23	600000	#ff0000	10pct	1	50pct	50pct	5000	110386	115400	110067	57	115741	341	0	0	21
6.1.1	win	2020-04-15	16:06:59	1	1	1	USRTblock	1	USRT	24	600000	#ff0000	10pct	1	50pct	50pct	3000	115745	118749	115400	57	119067	318	0	0	22
6.1.1	win	2020-04-15	16:06:59	1	1	1	USRTblock	1	USRT	25	600000	#ff0000	10pct	1	50pct	50pct	3000	119071	122083	118749	57	122424	341	0	0	23
6.1.1	win	2020-04-15	16:06:59	1	1	1	USRTblock	1	USRT	26	600000	#ff0000	10pct	1	50pct	50pct	5000	122428	127449	122083	57	127697	248	0	0	24
6.1.1	win	2020-04-15	16:06:59	1	1	1	USRTblock	1	USRT	27	600000	#ff0000	10pct	1	50pct	50pct	8000	127700	135715	127449	57	135969	254	0	0	25
6.1.1	win	2020-04-15	16:06:59	1	1	1	USRTblock	1	USRT	28	600000	#ff0000	10pct	1	50pct	50pct	6000	135972	141981	135715	57	142318	337	0	0	26
6.1.1	win	2020-04-15	16:06:59	1	1	1	USRTblock	1	USRT	29	600000	#ff0000	10pct	1	50pct	50pct	4000	142322	146330	141981	57	146644	314	0	0	27
6.1.1	win	2020-04-15	16:06:59	1	1	1	USRTblock	1	USRT	30	600000	#ff0000	10pct	1	50pct	50pct	5000	146647	151663	146330	57	152005	342	0	0	28
6.1.1	win	2020-04-15	16:06:59	1	1	1	USRTblock	1	USRT	31	600000	#ff0000	10pct	1	50pct	50pct	8000	152008	160029	151663	57	160287	258	0	0	29
6.1.1	win	2020-04-15	16:06:59	1	1	1	USRTblock	1	USRT	32	600000	#ff0000	10pct	1	50pct	50pct	2000	160290	162295	160029	57	162631	336	0	0	30
6.1.1	win	2020-04-15	16:06:59	1	1	1	USRTblock	1	USRT	33	600000	#ff0000	10pct	1	50pct	50pct	2000	162634	164645	162295	57	164937	292	0	0	31
6.1.1	win	2020-04-15	16:06:59	1	1	1	USRTblock	1	USRT	34	600000	#ff0000	10pct	1	50pct	50pct	4000	164942	168961	164645	57	169344	383	0	0	32
6.1.1	win	2020-04-15	16:06:59	1	1	1	USRTblock	1	USRT	35	600000	#ff0000	10pct	1	50pct	50pct	6000	169348	175361	168961	57	175645	284	0	0	33
6.1.1	win	2020-04-15	16:06:59	1	1	1	USRTblock	1	USRT	36	600000	#ff0000	10pct	1	50pct	50pct	8000	175649	183660	175361	57	183937	277	0	0	34
6.1.1	win	2020-04-15	16:06:59	1	1	1	USRTblock	1	USRT	37	600000	#ff0000	10pct	1	50pct	50pct	5000	183941	188959	183660	57	189279	320	0	0	35
6.1.1	win	2020-04-15	16:06:59	1	1	1	USRTblock	1	USRT	38	600000	#ff0000	10pct	1	50pct	50pct	3000	189283	192292	188959	57	192645	353	0	0	36
6.1.1	win	2020-04-15	16:06:59	1	1	1	USRTblock	1	USRT	39	600000	#ff0000	10pct	1	50pct	50pct	8000	192649	200658	192292	57	201037	379	0	0	37
6.1.1	win	2020-04-15	16:06:59	1	1	1	USRTblock	1	USRT	40	600000	#ff0000	10pct	1	50pct	50pct	7000	201041	208058	200658	57	208316	258	0	0	38
6.1.1	win	2020-04-15	16:06:59	1	1	1	USRTblock	1	USRT	41	600000	#ff0000	10pct	1	50pct	50pct	2000	208320	210340	208058	57	210692	352	0	0	39
6.1.1	win	2020-04-15	16:06:59	1	1	1	USRTblock	1	USRT	42	600000	#ff0000	10pct	1	50pct	50pct	7000	210695	217706	210340	57	217966	260	0	0	40
6.1.1	win	2020-04-15	16:06:59	1	1	1	USRTblock	1	USRT	43	600000	#ff0000	10pct	1	50pct	50pct	2000	217970	219990	217706	57	220273	283	0	0	41
6.1.1	win	2020-04-15	16:06:59	1	1	1	USRTblock	1	USRT	44	600000	#ff0000	10pct	1	50pct	50pct	6000	220277	226291	219990	57	226535	244	0	0	42
6.1.1	win	2020-04-15	16:06:59	1	1	1	USRTblock	1	USRT	45	600000	#ff0000	10pct	1	50pct	50pct	6000	226551	232571	226291	57	233033	462	0	0	43
6.1.1	win	2020-04-15	16:06:59	1	1	1	USRTblock	1	USRT	46	600000	#ff0000	10pct	1	50pct	50pct	2000	233037	235055	232571	57	235541	486	0	0	44
6.1.1	win	2020-04-15	16:06:59	1	1	1	USRTblock	1	USRT	47	600000	#ff0000	10pct	1	50pct	50pct	7000	235544	242554	235055	57	242795	241	0	0	45
6.1.1	win	2020-04-15	16:06:59	1	1	1	USRTblock	1	USRT	48	600000	#ff0000	10pct	1	50pct	50pct	6000	242798	248803	242554	57	249081	278	0	0	46
6.1.1	win	2020-04-15	16:06:59	1	1	1	USRTblock	1	USRT	49	600000	#ff0000	10pct	1	50pct	50pct	3000	249084	252103	248803	57	252431	328	0	0	47
6.1.1	win	2020-04-15	16:06:59	1	1	1	USRTblock	1	USRT	50	600000	#ff0000	10pct	1	50pct	50pct	6000	252435	258453	252103	57	258686	233	0	0	48
6.1.1	win	2020-04-15	16:06:59	1	1	1	USRTblock	1	USRT	51	600000	#ff0000	10pct	1	50pct	50pct	2000	258690	260702	258453	57	261088	386	0	0	49
6.1.1	win	2020-04-15	16:06:59	1	1	1	USRTblock	1	USRT	52	600000	#ff0000	10pct	1	50pct	50pct	3000	261091	264101	260702	57	264472	371	0	0	50
6.1.1	win	2020-04-15	16:06:59	1	1	1	USRTblock	1	USRT	53	600000	#ff0000	10pct	1	50pct	50pct	2000	264476	266485	264101	57	266767	282	0	0	51
6.1.1	win	2020-04-15	16:06:59	1	1	1	USRTblock	1	USRT	54	600000	#ff0000	10pct	1	50pct	50pct	5000	266771	271784	266485	57	272127	343	0	0	52
6.1.1	win	2020-04-15	16:06:59	1	1	1	USRTblock	1	USRT	55	600000	#ff0000	10pct	1	50pct	50pct	5000	272131	277151	271784	57	277457	306	0	0	53
6.1.1	win	2020-04-15	16:06:59	1	1	1	USRTblock	1	USRT	56	600000	#ff0000	10pct	1	50pct	50pct	7000	277460	284466	277151	57	284972	506	0	0	54
6.1.1	win	2020-04-15	16:06:59	1	1	1	USRTblock	1	USRT	57	600000	#ff0000	10pct	1	50pct	50pct	4000	284975	288982	284466	57	289301	319	0	0	55
6.1.1	win	2020-04-15	16:06:59	1	1	1	USRTblock	1	USRT	58	600000	#ff0000	10pct	1	50pct	50pct	5000	289305	294315	288982	57	294778	463	0	0	56
6.1.1	win	2020-04-15	16:06:59	1	1	1	USRTblock	1	USRT	59	600000	#ff0000	10pct	1	50pct	50pct	3000	294782	297798	294315	57	298285	487	0	0	57
6.1.1	win	2020-04-15	16:06:59	1	1	1	USRTblock	1	USRT	60	600000	#ff0000	10pct	1	50pct	50pct	3000	298288	301299	297798	57	301710	411	0	0	58
6.1.1	win	2020-04-15	16:06:59	1	1	1	USRTblock	1	USRT	61	600000	#ff0000	10pct	1	50pct	50pct	5000	301713	306731	301299	57	306972	241	0	0	59
6.1.1	win	2020-04-15	16:06:59	1	1	1	USRTblock	1	USRT	62	600000	#ff0000	10pct	1	50pct	50pct	6000	306976	312997	306731	57	313237	240	0	0	60
6.1.1	win	2020-04-15	16:06:59	1	1	1	USRTblock	1	USRT	63	600000	#ff0000	10pct	1	50pct	50pct	2000	313241	315246	312997	57	315657	411	0	0	61
6.1.1	win	2020-04-15	16:06:59	1	1	1	USRTblock	1	USRT	64	600000	#ff0000	10pct	1	50pct	50pct	5000	315660	320679	315246	57	320924	245	0	0	62
6.1.1	win	2020-04-15	16:06:59	1	1	1	USRTblock	1	USRT	65	600000	#ff0000	10pct	1	50pct	50pct	3000	320928	323946	320679	57	324276	330	0	0	63
6.1.1	win	2020-04-15	16:06:59	1	1	1	USRTblock	1	USRT	66	600000	#ff0000	10pct	1	50pct	50pct	3000	324280	327295	323946	57	327552	257	0	0	64
6.1.1	win	2020-04-15	16:06:59	1	1	1	USRTblock	1	USRT	67	600000	#ff0000	10pct	1	50pct	50pct	6000	327555	333562	327295	57	333925	363	0	0	65
6.1.1	win	2020-04-15	16:06:59	1	1	1	USRTblock	1	USRT	68	600000	#ff0000	10pct	1	50pct	50pct	4000	333928	337945	333562	57	338268	323	0	0	66
6.1.1	win	2020-04-15	16:06:59	1	1	1	USRTblock	1	USRT	69	600000	#ff0000	10pct	1	50pct	50pct	5000	338272	343277	337945	57	343655	378	0	0	67
6.1.1	win	2020-04-15	16:06:59	1	1	1	USRTblock	1	USRT	70	600000	#ff0000	10pct	1	50pct	50pct	7000	343659	350677	343277	57	351081	404	0	0	68
6.1.1	win	2020-04-15	16:06:59	1	1	1	USRTblock	1	USRT	71	600000	#ff0000	10pct	1	50pct	50pct	7000	351084	358093	350677	57	358367	274	0	0	69
6.1.1	win	2020-04-15	16:06:59	1	1	1	USRTblock	1	USRT	72	600000	#ff0000	10pct	1	50pct	50pct	3000	358371	361375	358093	57	361877	502	0	0	70
6.1.1	win	2020-04-15	16:06:59	1	1	1	USRTblock	1	USRT	73	600000	#ff0000	10pct	1	50pct	50pct	5000	361881	366891	361375	57	367205	314	0	0	71
6.1.1	win	2020-04-15	16:06:59	1	1	1	USRTblock	1	USRT	74	600000	#ff0000	10pct	1	50pct	50pct	5000	367208	372224	366891	57	372570	346	0	0	72
6.1.1	win	2020-04-15	16:06:59	1	1	1	USRTblock	1	USRT	75	600000	#ff0000	10pct	1	50pct	50pct	8000	372574	380590	372224	57	380874	284	0	0	73
6.1.1	win	2020-04-15	16:06:59	1	1	1	USRTblock	1	USRT	76	600000	#ff0000	10pct	1	50pct	50pct	8000	380878	388890	380590	57	389174	284	0	0	74
6.1.1	win	2020-04-15	16:06:59	1	1	1	USRTblock	1	USRT	77	600000	#ff0000	10pct	1	50pct	50pct	2000	389177	391189	388890	57	391473	284	0	0	75
6.1.1	win	2020-04-15	16:06:59	1	1	1	USRTblock	1	USRT	78	600000	#ff0000	10pct	1	50pct	50pct	4000	391476	395489	391189	57	395890	401	0	0	76
6.1.1	win	2020-04-15	16:06:59	1	1	1	USRTblock	1	USRT	79	600000	#ff0000	10pct	1	50pct	50pct	8000	395893	403905	395489	57	404144	239	0	0	77
6.1.1	win	2020-04-15	16:06:59	1	1	1	USRTblock	1	USRT	80	600000	#ff0000	10pct	1	50pct	50pct	5000	404147	409154	403905	57	409464	310	0	0	78
6.1.1	win	2020-04-15	16:06:59	1	1	1	USRTblock	1	USRT	81	600000	#ff0000	10pct	1	50pct	50pct	7000	409469	416487	409154	57	416714	227	0	0	79
6.1.1	win	2020-04-15	16:06:59	1	1	1	USRTblock	1	USRT	82	600000	#ff0000	10pct	1	50pct	50pct	2000	416718	418736	416487	57	419137	401	0	0	80
6.1.1	win	2020-04-15	16:06:59	1	1	1	USRTblock	1	USRT	83	600000	#ff0000	10pct	1	50pct	50pct	6000	419141	425152	418736	57	425595	443	0	0	81
6.1.1	win	2020-04-15	16:06:59	1	1	1	USRTblock	1	USRT	84	600000	#ff0000	10pct	1	50pct	50pct	4000	425598	429619	425152	57	429866	247	0	0	82
6.1.1	win	2020-04-15	16:06:59	1	1	1	USRTblock	1	USRT	85	600000	#ff0000	10pct	1	50pct	50pct	3000	429869	432885	429619	57	433171	286	0	0	83
6.1.1	win	2020-04-15	16:06:59	1	1	1	USRTblock	1	USRT	86	600000	#ff0000	10pct	1	50pct	50pct	3000	433175	-1	432885	57	434639	0	1	1	84
6.1.1	win	2020-04-15	16:06:59	1	1	1	USRTblock	1	USRT	87	600000	#ff0000	10pct	1	50pct	50pct	7000	434642	441650	-1	57	441890	240	0	1	85
6.1.1	win	2020-04-15	16:06:59	1	1	1	USRTblock	1	USRT	88	600000	#ff0000	10pct	1	50pct	50pct	5000	441894	446900	441650	57	447162	262	0	1	86
6.1.1	win	2020-04-15	16:06:59	1	1	1	USRTblock	1	USRT	89	600000	#ff0000	10pct	1	50pct	50pct	4000	447166	451184	446900	57	451594	410	0	1	87
6.1.1	win	2020-04-15	16:06:59	1	1	1	USRTblock	1	USRT	90	600000	#ff0000	10pct	1	50pct	50pct	3000	451598	454615	451184	57	454979	364	0	1	88
6.1.1	win	2020-04-15	16:06:59	1	1	1	USRTblock	1	USRT	91	600000	#ff0000	10pct	1	50pct	50pct	3000	454982	457999	454615	57	458295	296	0	1	89
6.1.1	win	2020-04-15	16:06:59	1	1	1	USRTblock	1	USRT	92	600000	#ff0000	10pct	1	50pct	50pct	5000	458299	463315	457999	57	463565	250	0	1	90
6.1.1	win	2020-04-15	16:06:59	1	1	1	USRTblock	1	USRT	93	600000	#ff0000	10pct	1	50pct	50pct	6000	463569	469581	463315	57	469834	253	0	1	91
6.1.1	win	2020-04-15	16:06:59	1	1	1	USRTblock	1	USRT	94	600000	#ff0000	10pct	1	50pct	50pct	4000	469838	473847	469581	57	474124	277	0	1	92
6.1.1	win	2020-04-15	16:06:59	1	1	1	USRTblock	1	USRT	95	600000	#ff0000	10pct	1	50pct	50pct	5000	474128	479147	473847	57	479419	272	0	1	93
6.1.1	win	2020-04-15	16:06:59	1	1	1	USRTblock	1	USRT	96	600000	#ff0000	10pct	1	50pct	50pct	3000	479422	482429	479147	57	482714	285	0	1	94
6.1.1	win	2020-04-15	16:06:59	1	1	1	USRTblock	1	USRT	97	600000	#ff0000	10pct	1	50pct	50pct	4000	482718	486729	482429	57	487242	513	0	1	95
6.1.1	win	2020-04-15	16:06:59	1	1	1	USRTblock	1	USRT	98	600000	#ff0000	10pct	1	50pct	50pct	7000	487245	494262	486729	57	494510	248	0	1	96
6.1.1	win	2020-04-15	16:06:59	1	1	1	USRTblock	1	USRT	99	600000	#ff0000	10pct	1	50pct	50pct	2000	494513	496528	494262	57	497061	533	0	1	97
6.1.1	win	2020-04-15	16:06:59	1	1	1	USRTblock	1	USRT	100	600000	#ff0000	10pct	1	50pct	50pct	5000	497064	502078	496528	57	502349	271	0	1	98
6.1.1	win	2020-04-15	16:06:59	1	1	1	USRTblock	1	USRT	101	600000	#ff0000	10pct	1	50pct	50pct	6000	502352	508361	502078	57	508690	329	0	1	99
6.1.1	win	2020-04-15	16:06:59	1	1	1	USRTblock	1	USRT	102	600000	#ff0000	10pct	1	50pct	50pct	3000	508693	511710	508361	57	511993	283	0	1	100
6.1.1	win	2020-04-15	16:06:59	1	1	1	USRTblock	1	USRT	103	600000	#ff0000	10pct	1	50pct	50pct	7000	511997	519010	511710	57	519264	254	0	1	101
6.1.1	win	2020-04-15	16:06:59	1	1	1	USRTblock	1	USRT	104	600000	#ff0000	10pct	1	50pct	50pct	6000	519268	525276	519010	57	525547	271	0	1	102
6.1.1	win	2020-04-15	16:06:59	1	1	1	USRTblock	1	USRT	105	600000	#ff0000	10pct	1	50pct	50pct	7000	525551	532558	525276	57	532945	387	0	1	103
6.1.1	win	2020-04-15	16:06:59	1	1	1	USRTblock	1	USRT	106	600000	#ff0000	10pct	1	50pct	50pct	7000	532949	539958	532558	57	540220	262	0	1	104
6.1.1	win	2020-04-15	16:06:59	1	1	1	USRTblock	1	USRT	107	600000	#ff0000	10pct	1	50pct	50pct	6000	540224	546240	539958	57	546572	332	0	1	105
6.1.1	win	2020-04-15	16:06:59	1	1	1	USRTblock	1	USRT	108	600000	#ff0000	10pct	1	50pct	50pct	6000	546575	552590	546240	57	552864	274	0	1	106
6.1.1	win	2020-04-15	16:06:59	1	1	1	USRTblock	1	USRT	109	600000	#ff0000	10pct	1	50pct	50pct	3000	552867	555872	552590	57	556189	317	0	1	107
6.1.1	win	2020-04-15	16:06:59	1	1	1	USRTblock	1	USRT	110	600000	#ff0000	10pct	1	50pct	50pct	8000	556193	564206	555872	57	564532	326	0	1	108
6.1.1	win	2020-04-15	16:06:59	1	1	1	USRTblock	1	USRT	111	600000	#ff0000	10pct	1	50pct	50pct	4000	564536	568554	564206	57	568837	283	0	1	109
6.1.1	win	2020-04-15	16:06:59	1	1	1	USRTblock	1	USRT	112	600000	#ff0000	10pct	1	50pct	50pct	8000	568840	576854	568554	57	577146	292	0	1	110
6.1.1	win	2020-04-15	16:06:59	1	1	1	USRTblock	1	USRT	113	600000	#ff0000	10pct	1	50pct	50pct	5000	577149	582170	576854	57	582458	288	0	1	111
6.1.1	win	2020-04-15	16:06:59	1	1	1	USRTblock	1	USRT	114	600000	#ff0000	10pct	1	50pct	50pct	8000	582462	590469	582170	57	590757	288	0	1	112
6.1.1	win	2020-04-15	16:06:59	1	1	1	USRTblock	1	USRT	115	600000	#ff0000	10pct	1	50pct	50pct	6000	590761	596768	590469	57	597097	329	0	1	113
6.1.1	win	2020-04-15	16:06:59	1	1	1	USRTblock	1	USRT	116	600000	#ff0000	10pct	1	50pct	50pct	4000	597100	601117	596768	57	601387	270	0	1	114
6.1.1	win	2020-04-15	16:06:59	1	1	1	USRTblock	1	USRT	117	600000	#ff0000	10pct	1	50pct	50pct	7000	601390	-1	601117	0	601478	0	1	2	115
