build	computer.platform	date	time	subject	group	sessionid	blockcode	blocknum	trialcode	trialnum	testduration	targetcolor	targetsize	fixed	targetx	targety	stiminterval	trialStart	shape.targetcircle.timestamp	lastCircleTimestamp	response	rt_elapsed	rt	EarlyResponse	countEarlyResponses	countResponses
6.1.1	win	2020-04-17	16:25:31	1	1	1	USRTblock	1	USRT	3	600000	#ff0000	10pct	1	50pct	50pct	6000	3322	9334	2581	57	9585	251	0	0	1
6.1.1	win	2020-04-17	16:25:31	1	1	1	USRTblock	1	USRT	4	600000	#ff0000	10pct	1	50pct	50pct	7000	9603	16617	9334	57	16853	236	0	0	2
6.1.1	win	2020-04-17	16:25:31	1	1	1	USRTblock	1	USRT	5	600000	#ff0000	10pct	1	50pct	50pct	6000	16858	22866	16617	57	23110	244	0	0	3
6.1.1	win	2020-04-17	16:25:31	1	1	1	USRTblock	1	USRT	6	600000	#ff0000	10pct	1	50pct	50pct	3000	23115	26133	22866	57	26413	280	0	0	4
6.1.1	win	2020-04-17	16:25:31	1	1	1	USRTblock	1	USRT	7	600000	#ff0000	10pct	1	50pct	50pct	6000	26417	32431	26133	57	32677	246	0	0	5
6.1.1	win	2020-04-17	16:25:31	1	1	1	USRTblock	1	USRT	8	600000	#ff0000	10pct	1	50pct	50pct	5000	32680	37698	32431	57	37932	234	0	0	6
6.1.1	win	2020-04-17	16:25:31	1	1	1	USRTblock	1	USRT	9	600000	#ff0000	10pct	1	50pct	50pct	8000	37936	45948	37698	57	46224	276	0	0	7
6.1.1	win	2020-04-17	16:25:31	1	1	1	USRTblock	1	USRT	10	600000	#ff0000	10pct	1	50pct	50pct	7000	46228	53246	45948	57	53501	255	0	0	8
6.1.1	win	2020-04-17	16:25:31	1	1	1	USRTblock	1	USRT	11	600000	#ff0000	10pct	1	50pct	50pct	5000	53504	58513	53246	57	58796	283	0	0	9
6.1.1	win	2020-04-17	16:25:31	1	1	1	USRTblock	1	USRT	12	600000	#ff0000	10pct	1	50pct	50pct	5000	58799	63812	58513	57	64182	370	0	0	10
6.1.1	win	2020-04-17	16:25:31	1	1	1	USRTblock	1	USRT	13	600000	#ff0000	10pct	1	50pct	50pct	7000	64185	71195	63812	57	71462	267	0	0	11
6.1.1	win	2020-04-17	16:25:31	1	1	1	USRTblock	1	USRT	14	600000	#ff0000	10pct	1	50pct	50pct	7000	71465	78477	71195	57	78798	321	0	0	12
6.1.1	win	2020-04-17	16:25:31	1	1	1	USRTblock	1	USRT	15	600000	#ff0000	10pct	1	50pct	50pct	6000	78801	84810	78477	57	85108	298	0	0	13
6.1.1	win	2020-04-17	16:25:31	1	1	1	USRTblock	1	USRT	16	600000	#ff0000	10pct	1	50pct	50pct	7000	85111	92126	84810	57	92376	250	0	0	14
6.1.1	win	2020-04-17	16:25:31	1	1	1	USRTblock	1	USRT	17	600000	#ff0000	10pct	1	50pct	50pct	5000	92379	97392	92126	57	97693	301	0	0	15
6.1.1	win	2020-04-17	16:25:31	1	1	1	USRTblock	1	USRT	18	600000	#ff0000	10pct	1	50pct	50pct	7000	97696	104708	97392	57	104955	247	0	0	16
6.1.1	win	2020-04-17	16:25:31	1	1	1	USRTblock	1	USRT	19	600000	#ff0000	10pct	1	50pct	50pct	2000	104958	106974	104708	57	107262	288	0	0	17
6.1.1	win	2020-04-17	16:25:31	1	1	1	USRTblock	1	USRT	20	600000	#ff0000	10pct	1	50pct	50pct	3000	107265	110274	106974	57	110773	499	0	0	18
6.1.1	win	2020-04-17	16:25:31	1	1	1	USRTblock	1	USRT	21	600000	#ff0000	10pct	1	50pct	50pct	6000	110777	116790	110274	57	117069	279	0	0	19
6.1.1	win	2020-04-17	16:25:31	1	1	1	USRTblock	1	USRT	22	600000	#ff0000	10pct	1	50pct	50pct	3000	117073	120089	116790	57	120391	302	0	0	20
6.1.1	win	2020-04-17	16:25:31	1	1	1	USRTblock	1	USRT	23	600000	#ff0000	10pct	1	50pct	50pct	6000	120437	126456	120089	57	126767	311	0	0	21
6.1.1	win	2020-04-17	16:25:31	1	1	1	USRTblock	1	USRT	24	600000	#ff0000	10pct	1	50pct	50pct	6000	126771	132788	126456	57	133043	255	0	0	22
6.1.1	win	2020-04-17	16:25:31	1	1	1	USRTblock	1	USRT	25	600000	#ff0000	10pct	1	50pct	50pct	3000	133046	136055	132788	57	136327	272	0	0	23
6.1.1	win	2020-04-17	16:25:31	1	1	1	USRTblock	1	USRT	26	600000	#ff0000	10pct	1	50pct	50pct	2000	136331	138337	136055	57	138634	297	0	0	24
6.1.1	win	2020-04-17	16:25:31	1	1	1	USRTblock	1	USRT	27	600000	#ff0000	10pct	1	50pct	50pct	3000	138638	141654	138337	57	141913	259	0	0	25
6.1.1	win	2020-04-17	16:25:31	1	1	1	USRTblock	1	USRT	28	600000	#ff0000	10pct	1	50pct	50pct	5000	141916	146937	141654	57	147180	243	0	0	26
6.1.1	win	2020-04-17	16:25:31	1	1	1	USRTblock	1	USRT	29	600000	#ff0000	10pct	1	50pct	50pct	6000	147184	153203	146937	57	153493	290	0	0	27
6.1.1	win	2020-04-17	16:25:31	1	1	1	USRTblock	1	USRT	30	600000	#ff0000	10pct	1	50pct	50pct	3000	153497	156502	153203	57	156787	285	0	0	28
6.1.1	win	2020-04-17	16:25:31	1	1	1	USRTblock	1	USRT	31	600000	#ff0000	10pct	1	50pct	50pct	7000	156791	163803	156502	57	164076	273	0	0	29
6.1.1	win	2020-04-17	16:25:31	1	1	1	USRTblock	1	USRT	32	600000	#ff0000	10pct	1	50pct	50pct	5000	164080	169085	163803	57	169355	270	0	0	30
6.1.1	win	2020-04-17	16:25:31	1	1	1	USRTblock	1	USRT	33	600000	#ff0000	10pct	1	50pct	50pct	5000	169359	174368	169085	57	174650	282	0	0	31
6.1.1	win	2020-04-17	16:25:31	1	1	1	USRTblock	1	USRT	34	600000	#ff0000	10pct	1	50pct	50pct	3000	174653	177667	174368	57	177950	283	0	0	32
6.1.1	win	2020-04-17	16:25:31	1	1	1	USRTblock	1	USRT	35	600000	#ff0000	10pct	1	50pct	50pct	2000	177954	179967	177667	57	180299	332	0	0	33
6.1.1	win	2020-04-17	16:25:31	1	1	1	USRTblock	1	USRT	36	600000	#ff0000	10pct	1	50pct	50pct	2000	180302	182317	179967	57	182648	331	0	0	34
6.1.1	win	2020-04-17	16:25:31	1	1	1	USRTblock	1	USRT	37	600000	#ff0000	10pct	1	50pct	50pct	3000	182652	185666	182317	57	186048	382	0	0	35
6.1.1	win	2020-04-17	16:25:31	1	1	1	USRTblock	1	USRT	38	600000	#ff0000	10pct	1	50pct	50pct	5000	186051	191066	185666	57	191313	247	0	0	36
6.1.1	win	2020-04-17	16:25:31	1	1	1	USRTblock	1	USRT	39	600000	#ff0000	10pct	1	50pct	50pct	4000	191316	195332	191066	57	195585	253	0	0	37
6.1.1	win	2020-04-17	16:25:31	1	1	1	USRTblock	1	USRT	40	600000	#ff0000	10pct	1	50pct	50pct	8000	195589	203598	195332	57	203884	286	0	0	38
6.1.1	win	2020-04-17	16:25:31	1	1	1	USRTblock	1	USRT	41	600000	#ff0000	10pct	1	50pct	50pct	7000	203888	210897	203598	57	211154	257	0	0	39
6.1.1	win	2020-04-17	16:25:31	1	1	1	USRTblock	1	USRT	42	600000	#ff0000	10pct	1	50pct	50pct	8000	211157	219163	210897	57	219441	278	0	0	40
6.1.1	win	2020-04-17	16:25:31	1	1	1	USRTblock	1	USRT	43	600000	#ff0000	10pct	1	50pct	50pct	8000	219445	227462	219163	57	227713	251	0	0	41
6.1.1	win	2020-04-17	16:25:31	1	1	1	USRTblock	1	USRT	44	600000	#ff0000	10pct	1	50pct	50pct	7000	227716	234728	227462	57	235080	352	0	0	42
6.1.1	win	2020-04-17	16:25:31	1	1	1	USRTblock	1	USRT	45	600000	#ff0000	10pct	1	50pct	50pct	7000	235083	242094	234728	57	242405	311	0	0	43
6.1.1	win	2020-04-17	16:25:31	1	1	1	USRTblock	1	USRT	46	600000	#ff0000	10pct	1	50pct	50pct	7000	242408	249427	242094	57	249731	304	0	0	44
6.1.1	win	2020-04-17	16:25:31	1	1	1	USRTblock	1	USRT	47	600000	#ff0000	10pct	1	50pct	50pct	6000	249735	255743	249427	57	256327	584	0	0	45
6.1.1	win	2020-04-17	16:25:31	1	1	1	USRTblock	1	USRT	48	600000	#ff0000	10pct	1	50pct	50pct	7000	256331	263342	255743	57	263616	274	0	0	46
6.1.1	win	2020-04-17	16:25:31	1	1	1	USRTblock	1	USRT	49	600000	#ff0000	10pct	1	50pct	50pct	7000	263619	270624	263342	57	270933	309	0	0	47
6.1.1	win	2020-04-17	16:25:31	1	1	1	USRTblock	1	USRT	50	600000	#ff0000	10pct	1	50pct	50pct	8000	270936	278958	270624	57	279232	274	0	0	48
6.1.1	win	2020-04-17	16:25:31	1	1	1	USRTblock	1	USRT	51	600000	#ff0000	10pct	1	50pct	50pct	4000	279235	283256	278958	57	283514	258	0	0	49
6.1.1	win	2020-04-17	16:25:31	1	1	1	USRTblock	1	USRT	52	600000	#ff0000	10pct	1	50pct	50pct	6000	283517	289522	283256	57	289811	289	0	0	50
6.1.1	win	2020-04-17	16:25:31	1	1	1	USRTblock	1	USRT	53	600000	#ff0000	10pct	1	50pct	50pct	8000	289815	297825	289522	57	298087	262	0	0	51
6.1.1	win	2020-04-17	16:25:31	1	1	1	USRTblock	1	USRT	54	600000	#ff0000	10pct	1	50pct	50pct	4000	298091	302104	297825	57	302393	289	0	0	52
6.1.1	win	2020-04-17	16:25:31	1	1	1	USRTblock	1	USRT	55	600000	#ff0000	10pct	1	50pct	50pct	7000	302397	309404	302104	57	309669	265	0	0	53
6.1.1	win	2020-04-17	16:25:31	1	1	1	USRTblock	1	USRT	56	600000	#ff0000	10pct	1	50pct	50pct	2000	309673	311687	309404	57	312057	370	0	0	54
6.1.1	win	2020-04-17	16:25:31	1	1	1	USRTblock	1	USRT	57	600000	#ff0000	10pct	1	50pct	50pct	6000	312060	318070	311687	57	318324	254	0	0	55
6.1.1	win	2020-04-17	16:25:31	1	1	1	USRTblock	1	USRT	58	600000	#ff0000	10pct	1	50pct	50pct	2000	318327	320336	318070	57	320653	317	0	0	56
6.1.1	win	2020-04-17	16:25:31	1	1	1	USRTblock	1	USRT	59	600000	#ff0000	10pct	1	50pct	50pct	8000	320657	328674	320336	57	329142	468	0	0	57
6.1.1	win	2020-04-17	16:25:31	1	1	1	USRTblock	1	USRT	60	600000	#ff0000	10pct	1	50pct	50pct	7000	329145	336151	328674	57	336418	267	0	0	58
6.1.1	win	2020-04-17	16:25:31	1	1	1	USRTblock	1	USRT	61	600000	#ff0000	10pct	1	50pct	50pct	5000	336422	341434	336151	57	341722	288	0	0	59
6.1.1	win	2020-04-17	16:25:31	1	1	1	USRTblock	1	USRT	62	600000	#ff0000	10pct	1	50pct	50pct	7000	341726	348733	341434	57	349038	305	0	0	60
6.1.1	win	2020-04-17	16:25:31	1	1	1	USRTblock	1	USRT	63	600000	#ff0000	10pct	1	50pct	50pct	6000	349042	355050	348733	57	355391	341	0	0	61
6.1.1	win	2020-04-17	16:25:31	1	1	1	USRTblock	1	USRT	64	600000	#ff0000	10pct	1	50pct	50pct	3000	355395	358415	355050	57	358687	272	0	0	62
6.1.1	win	2020-04-17	16:25:31	1	1	1	USRTblock	1	USRT	65	600000	#ff0000	10pct	1	50pct	50pct	7000	358692	365699	358415	57	365930	231	0	0	63
6.1.1	win	2020-04-17	16:25:31	1	1	1	USRTblock	1	USRT	66	600000	#ff0000	10pct	1	50pct	50pct	3000	365934	368948	365699	57	369242	294	0	0	64
6.1.1	win	2020-04-17	16:25:31	1	1	1	USRTblock	1	USRT	67	600000	#ff0000	10pct	1	50pct	50pct	4000	369246	373264	368948	57	373547	283	0	0	65
6.1.1	win	2020-04-17	16:25:31	1	1	1	USRTblock	1	USRT	68	600000	#ff0000	10pct	1	50pct	50pct	8000	373551	381563	373264	57	381797	234	0	0	66
6.1.1	win	2020-04-17	16:25:31	1	1	1	USRTblock	1	USRT	69	600000	#ff0000	10pct	1	50pct	50pct	2000	381801	383813	381563	57	384233	420	0	0	67
6.1.1	win	2020-04-17	16:25:31	1	1	1	USRTblock	1	USRT	70	600000	#ff0000	10pct	1	50pct	50pct	6000	384237	390247	383813	57	390508	261	0	0	68
6.1.1	win	2020-04-17	16:25:31	1	1	1	USRTblock	1	USRT	71	600000	#ff0000	10pct	1	50pct	50pct	4000	390512	394528	390247	57	394837	309	0	0	69
6.1.1	win	2020-04-17	16:25:31	1	1	1	USRTblock	1	USRT	72	600000	#ff0000	10pct	1	50pct	50pct	2000	394840	396861	394528	57	397113	252	0	0	70
6.1.1	win	2020-04-17	16:25:31	1	1	1	USRTblock	1	USRT	73	600000	#ff0000	10pct	1	50pct	50pct	2000	397116	399128	396861	57	399520	392	0	0	71
6.1.1	win	2020-04-17	16:25:31	1	1	1	USRTblock	1	USRT	74	600000	#ff0000	10pct	1	50pct	50pct	7000	399523	406528	399128	57	406800	272	0	0	72
6.1.1	win	2020-04-17	16:25:31	1	1	1	USRTblock	1	USRT	75	600000	#ff0000	10pct	1	50pct	50pct	8000	406803	414811	406528	57	415098	287	0	0	73
6.1.1	win	2020-04-17	16:25:31	1	1	1	USRTblock	1	USRT	76	600000	#ff0000	10pct	1	50pct	50pct	3000	415102	418109	414811	57	418502	393	0	0	74
6.1.1	win	2020-04-17	16:25:31	1	1	1	USRTblock	1	USRT	77	600000	#ff0000	10pct	1	50pct	50pct	6000	418506	424526	418109	57	425070	544	0	0	75
6.1.1	win	2020-04-17	16:25:31	1	1	1	USRTblock	1	USRT	78	600000	#ff0000	10pct	1	50pct	50pct	7000	425074	432092	424526	57	432393	301	0	0	76
6.1.1	win	2020-04-17	16:25:31	1	1	1	USRTblock	1	USRT	79	600000	#ff0000	10pct	1	50pct	50pct	5000	432397	437408	432092	57	437921	513	0	0	77
6.1.1	win	2020-04-17	16:25:31	1	1	1	USRTblock	1	USRT	80	600000	#ff0000	10pct	1	50pct	50pct	3000	437940	440957	437408	57	441278	321	0	0	78
6.1.1	win	2020-04-17	16:25:31	1	1	1	USRTblock	1	USRT	81	600000	#ff0000	10pct	1	50pct	50pct	6000	441282	447290	440957	57	447569	279	0	0	79
6.1.1	win	2020-04-17	16:25:31	1	1	1	USRTblock	1	USRT	82	600000	#ff0000	10pct	1	50pct	50pct	7000	447573	454589	447290	57	454849	260	0	0	80
6.1.1	win	2020-04-17	16:25:31	1	1	1	USRTblock	1	USRT	83	600000	#ff0000	10pct	1	50pct	50pct	7000	454853	461872	454589	57	462158	286	0	0	81
6.1.1	win	2020-04-17	16:25:31	1	1	1	USRTblock	1	USRT	84	600000	#ff0000	10pct	1	50pct	50pct	3000	462161	465171	461872	57	465480	309	0	0	82
6.1.1	win	2020-04-17	16:25:31	1	1	1	USRTblock	1	USRT	85	600000	#ff0000	10pct	1	50pct	50pct	8000	465483	473504	465171	57	473743	239	0	0	83
6.1.1	win	2020-04-17	16:25:31	1	1	1	USRTblock	1	USRT	86	600000	#ff0000	10pct	1	50pct	50pct	2000	473747	475753	473504	57	476040	287	0	0	84
6.1.1	win	2020-04-17	16:25:31	1	1	1	USRTblock	1	USRT	87	600000	#ff0000	10pct	1	50pct	50pct	4000	476043	480054	475753	57	480365	311	0	0	85
6.1.1	win	2020-04-17	16:25:31	1	1	1	USRTblock	1	USRT	88	600000	#ff0000	10pct	1	50pct	50pct	4000	480368	484386	480054	57	484707	321	0	0	86
6.1.1	win	2020-04-17	16:25:31	1	1	1	USRTblock	1	USRT	89	600000	#ff0000	10pct	1	50pct	50pct	3000	484710	487719	484386	57	488124	405	0	0	87
6.1.1	win	2020-04-17	16:25:31	1	1	1	USRTblock	1	USRT	90	600000	#ff0000	10pct	1	50pct	50pct	3000	488127	491135	487719	57	491490	355	0	0	88
6.1.1	win	2020-04-17	16:25:31	1	1	1	USRTblock	1	USRT	91	600000	#ff0000	10pct	1	50pct	50pct	7000	491494	498501	491135	57	498818	317	0	0	89
6.1.1	win	2020-04-17	16:25:31	1	1	1	USRTblock	1	USRT	92	600000	#ff0000	10pct	1	50pct	50pct	8000	498822	506834	498501	57	507222	388	0	0	90
6.1.1	win	2020-04-17	16:25:31	1	1	1	USRTblock	1	USRT	93	600000	#ff0000	10pct	1	50pct	50pct	8000	507226	515233	506834	57	515665	432	0	0	91
6.1.1	win	2020-04-17	16:25:31	1	1	1	USRTblock	1	USRT	94	600000	#ff0000	10pct	1	50pct	50pct	7000	515668	522683	515233	57	523004	321	0	0	92
6.1.1	win	2020-04-17	16:25:31	1	1	1	USRTblock	1	USRT	95	600000	#ff0000	10pct	1	50pct	50pct	8000	523007	531015	522683	57	531255	240	0	0	93
6.1.1	win	2020-04-17	16:25:31	1	1	1	USRTblock	1	USRT	96	600000	#ff0000	10pct	1	50pct	50pct	5000	531259	536264	531015	57	536546	282	0	0	94
6.1.1	win	2020-04-17	16:25:31	1	1	1	USRTblock	1	USRT	97	600000	#ff0000	10pct	1	50pct	50pct	6000	536550	542564	536264	57	542826	262	0	0	95
6.1.1	win	2020-04-17	16:25:31	1	1	1	USRTblock	1	USRT	98	600000	#ff0000	10pct	1	50pct	50pct	8000	542830	550847	542564	57	551093	246	0	0	96
6.1.1	win	2020-04-17	16:25:31	1	1	1	USRTblock	1	USRT	99	600000	#ff0000	10pct	1	50pct	50pct	5000	551097	556112	550847	57	556422	310	0	0	97
6.1.1	win	2020-04-17	16:25:31	1	1	1	USRTblock	1	USRT	100	600000	#ff0000	10pct	1	50pct	50pct	8000	556425	564446	556112	57	564757	311	0	0	98
6.1.1	win	2020-04-17	16:25:31	1	1	1	USRTblock	1	USRT	101	600000	#ff0000	10pct	1	50pct	50pct	3000	564760	567778	564446	57	568104	326	0	0	99
6.1.1	win	2020-04-17	16:25:31	1	1	1	USRTblock	1	USRT	102	600000	#ff0000	10pct	1	50pct	50pct	5000	568107	573127	567778	57	573658	531	0	0	100
6.1.1	win	2020-04-17	16:25:31	1	1	1	USRTblock	1	USRT	103	600000	#ff0000	10pct	1	50pct	50pct	2000	573662	575677	573127	57	576000	323	0	0	101
6.1.1	win	2020-04-17	16:25:31	1	1	1	USRTblock	1	USRT	104	600000	#ff0000	10pct	1	50pct	50pct	4000	576003	580010	575677	57	580348	338	0	0	102
6.1.1	win	2020-04-17	16:25:31	1	1	1	USRTblock	1	USRT	105	600000	#ff0000	10pct	1	50pct	50pct	4000	580352	584360	580010	57	584759	399	0	0	103
6.1.1	win	2020-04-17	16:25:31	1	1	1	USRTblock	1	USRT	106	600000	#ff0000	10pct	1	50pct	50pct	5000	584763	589776	584360	57	590238	462	0	0	104
6.1.1	win	2020-04-17	16:25:31	1	1	1	USRTblock	1	USRT	107	600000	#ff0000	10pct	1	50pct	50pct	2000	590242	592259	589776	57	592628	369	0	0	105
6.1.1	win	2020-04-17	16:25:31	1	1	1	USRTblock	1	USRT	108	600000	#ff0000	10pct	1	50pct	50pct	7000	592632	599642	592259	57	600054	412	0	0	106
6.1.1	win	2020-04-17	16:25:31	1	1	1	USRTblock	1	USRT	109	600000	#ff0000	10pct	1	50pct	50pct	8000	600058	-1	599642	0	600161	0	1	1	107
