build	computer.platform	date	time	subject	group	sessionid	blockcode	blocknum	trialcode	trialnum	testduration	targetcolor	targetsize	fixed	targetx	targety	stiminterval	trialStart	shape.targetcircle.timestamp	lastCircleTimestamp	response	rt_elapsed	rt	EarlyResponse	countEarlyResponses	countResponses
6.1.1	win	2020-04-16	19:19:45	1	1	1	USRTblock	1	USRT	3	600000	#ff0000	10pct	1	50pct	50pct	4000	3299	7318	2548	57	7548	230	0	0	1
6.1.1	win	2020-04-16	19:19:45	1	1	1	USRTblock	1	USRT	4	600000	#ff0000	10pct	1	50pct	50pct	7000	7601	14617	7318	57	14856	239	0	0	2
6.1.1	win	2020-04-16	19:19:45	1	1	1	USRTblock	1	USRT	5	600000	#ff0000	10pct	1	50pct	50pct	5000	14859	19867	14617	57	20103	236	0	0	3
6.1.1	win	2020-04-16	19:19:45	1	1	1	USRTblock	1	USRT	6	600000	#ff0000	10pct	1	50pct	50pct	8000	20107	28116	19867	57	28378	262	0	0	4
6.1.1	win	2020-04-16	19:19:45	1	1	1	USRTblock	1	USRT	7	600000	#ff0000	10pct	1	50pct	50pct	3000	28381	31398	28116	57	31686	288	0	0	5
6.1.1	win	2020-04-16	19:19:45	1	1	1	USRTblock	1	USRT	8	600000	#ff0000	10pct	1	50pct	50pct	2000	31689	33699	31398	57	33971	272	0	0	6
6.1.1	win	2020-04-16	19:19:45	1	1	1	USRTblock	1	USRT	9	600000	#ff0000	10pct	1	50pct	50pct	8000	33975	41981	33699	57	42224	243	0	0	7
6.1.1	win	2020-04-16	19:19:45	1	1	1	USRTblock	1	USRT	10	600000	#ff0000	10pct	1	50pct	50pct	8000	42227	50247	41981	57	50512	265	0	0	8
6.1.1	win	2020-04-16	19:19:45	1	1	1	USRTblock	1	USRT	11	600000	#ff0000	10pct	1	50pct	50pct	5000	50516	55530	50247	57	55810	280	0	0	9
6.1.1	win	2020-04-16	19:19:45	1	1	1	USRTblock	1	USRT	12	600000	#ff0000	10pct	1	50pct	50pct	8000	55813	63830	55530	57	64084	254	0	0	10
6.1.1	win	2020-04-16	19:19:45	1	1	1	USRTblock	1	USRT	13	600000	#ff0000	10pct	1	50pct	50pct	8000	64088	72095	63830	57	72340	245	0	0	11
6.1.1	win	2020-04-16	19:19:45	1	1	1	USRTblock	1	USRT	14	600000	#ff0000	10pct	1	50pct	50pct	5000	72344	77361	72095	57	77690	329	0	0	12
6.1.1	win	2020-04-16	19:19:45	1	1	1	USRTblock	1	USRT	15	600000	#ff0000	10pct	1	50pct	50pct	2000	77693	79711	77361	57	80017	306	0	0	13
6.1.1	win	2020-04-16	19:19:45	1	1	1	USRTblock	1	USRT	16	600000	#ff0000	10pct	1	50pct	50pct	7000	80020	87027	79711	57	87371	344	0	0	14
6.1.1	win	2020-04-16	19:19:45	1	1	1	USRTblock	1	USRT	17	600000	#ff0000	10pct	1	50pct	50pct	2000	87375	89393	87027	57	89708	315	0	0	15
6.1.1	win	2020-04-16	19:19:45	1	1	1	USRTblock	1	USRT	18	600000	#ff0000	10pct	1	50pct	50pct	7000	89712	96726	89393	57	96985	259	0	0	16
6.1.1	win	2020-04-16	19:19:45	1	1	1	USRTblock	1	USRT	19	600000	#ff0000	10pct	1	50pct	50pct	3000	96990	100008	96726	57	100362	354	0	0	17
6.1.1	win	2020-04-16	19:19:45	1	1	1	USRTblock	1	USRT	20	600000	#ff0000	10pct	1	50pct	50pct	8000	100366	108375	100008	57	108629	254	0	0	18
6.1.1	win	2020-04-16	19:19:45	1	1	1	USRTblock	1	USRT	21	600000	#ff0000	10pct	1	50pct	50pct	6000	108632	114641	108375	57	114900	259	0	0	19
6.1.1	win	2020-04-16	19:19:45	1	1	1	USRTblock	1	USRT	22	600000	#ff0000	10pct	1	50pct	50pct	6000	114903	120924	114641	57	121190	266	0	0	20
6.1.1	win	2020-04-16	19:19:45	1	1	1	USRTblock	1	USRT	23	600000	#ff0000	10pct	1	50pct	50pct	4000	121194	125206	120924	57	125483	277	0	0	21
6.1.1	win	2020-04-16	19:19:45	1	1	1	USRTblock	1	USRT	24	600000	#ff0000	10pct	1	50pct	50pct	2000	125487	127506	125206	57	127771	265	0	0	22
6.1.1	win	2020-04-16	19:19:45	1	1	1	USRTblock	1	USRT	25	600000	#ff0000	10pct	1	50pct	50pct	3000	127776	130788	127506	57	131067	279	0	0	23
6.1.1	win	2020-04-16	19:19:45	1	1	1	USRTblock	1	USRT	26	600000	#ff0000	10pct	1	50pct	50pct	4000	131071	135088	130788	57	135310	222	0	0	24
6.1.1	win	2020-04-16	19:19:45	1	1	1	USRTblock	1	USRT	27	600000	#ff0000	10pct	1	50pct	50pct	7000	135313	142321	135088	57	142613	292	0	0	25
6.1.1	win	2020-04-16	19:19:45	1	1	1	USRTblock	1	USRT	28	600000	#ff0000	10pct	1	50pct	50pct	2000	142617	144637	142321	57	144919	282	0	0	26
6.1.1	win	2020-04-16	19:19:45	1	1	1	USRTblock	1	USRT	29	600000	#ff0000	10pct	1	50pct	50pct	3000	144922	147937	144637	57	148243	306	0	0	27
6.1.1	win	2020-04-16	19:19:45	1	1	1	USRTblock	1	USRT	30	600000	#ff0000	10pct	1	50pct	50pct	5000	148248	153270	147937	57	153518	248	0	0	28
6.1.1	win	2020-04-16	19:19:45	1	1	1	USRTblock	1	USRT	31	600000	#ff0000	10pct	1	50pct	50pct	8000	153523	161536	153270	57	161840	304	0	0	29
6.1.1	win	2020-04-16	19:19:45	1	1	1	USRTblock	1	USRT	32	600000	#ff0000	10pct	1	50pct	50pct	8000	161843	169852	161536	57	170163	311	0	0	30
6.1.1	win	2020-04-16	19:19:45	1	1	1	USRTblock	1	USRT	33	600000	#ff0000	10pct	1	50pct	50pct	5000	170168	175185	169852	57	175476	291	0	0	31
6.1.1	win	2020-04-16	19:19:45	1	1	1	USRTblock	1	USRT	34	600000	#ff0000	10pct	1	50pct	50pct	5000	175480	180500	175185	57	180772	272	0	0	32
6.1.1	win	2020-04-16	19:19:45	1	1	1	USRTblock	1	USRT	35	600000	#ff0000	10pct	1	50pct	50pct	3000	180775	183783	180500	57	184128	345	0	0	33
6.1.1	win	2020-04-16	19:19:45	1	1	1	USRTblock	1	USRT	36	600000	#ff0000	10pct	1	50pct	50pct	6000	184132	190150	183783	57	190396	246	0	0	34
6.1.1	win	2020-04-16	19:19:45	1	1	1	USRTblock	1	USRT	37	600000	#ff0000	10pct	1	50pct	50pct	8000	190399	198416	190150	57	198645	229	0	0	35
6.1.1	win	2020-04-16	19:19:45	1	1	1	USRTblock	1	USRT	38	600000	#ff0000	10pct	1	50pct	50pct	5000	198648	203665	198416	57	203918	253	0	0	36
6.1.1	win	2020-04-16	19:19:45	1	1	1	USRTblock	1	USRT	39	600000	#ff0000	10pct	1	50pct	50pct	5000	203922	208931	203665	57	209204	273	0	0	37
6.1.1	win	2020-04-16	19:19:45	1	1	1	USRTblock	1	USRT	40	600000	#ff0000	10pct	1	50pct	50pct	8000	209208	217231	208931	57	217511	280	0	0	38
6.1.1	win	2020-04-16	19:19:45	1	1	1	USRTblock	1	USRT	41	600000	#ff0000	10pct	1	50pct	50pct	7000	217515	224530	217231	57	224840	310	0	0	39
6.1.1	win	2020-04-16	19:19:45	1	1	1	USRTblock	1	USRT	42	600000	#ff0000	10pct	1	50pct	50pct	6000	224843	230862	224530	57	231141	279	0	0	40
6.1.1	win	2020-04-16	19:19:45	1	1	1	USRTblock	1	USRT	43	600000	#ff0000	10pct	1	50pct	50pct	3000	231144	234162	230862	57	234531	369	0	0	41
6.1.1	win	2020-04-16	19:19:45	1	1	1	USRTblock	1	USRT	44	600000	#ff0000	10pct	1	50pct	50pct	2000	234535	236545	234162	57	236851	306	0	0	42
6.1.1	win	2020-04-16	19:19:45	1	1	1	USRTblock	1	USRT	45	600000	#ff0000	10pct	1	50pct	50pct	6000	236856	242877	236545	57	243171	294	0	0	43
6.1.1	win	2020-04-16	19:19:45	1	1	1	USRTblock	1	USRT	46	600000	#ff0000	10pct	1	50pct	50pct	2000	243177	245194	242877	57	245559	365	0	0	44
6.1.1	win	2020-04-16	19:19:45	1	1	1	USRTblock	1	USRT	47	600000	#ff0000	10pct	1	50pct	50pct	8000	245562	253577	245194	57	253888	311	0	0	45
6.1.1	win	2020-04-16	19:19:45	1	1	1	USRTblock	1	USRT	48	600000	#ff0000	10pct	1	50pct	50pct	7000	253891	260909	253577	57	261181	272	0	0	46
6.1.1	win	2020-04-16	19:19:45	1	1	1	USRTblock	1	USRT	49	600000	#ff0000	10pct	1	50pct	50pct	5000	261185	266192	260909	57	266644	452	0	0	47
6.1.1	win	2020-04-16	19:19:45	1	1	1	USRTblock	1	USRT	50	600000	#ff0000	10pct	1	50pct	50pct	2000	266647	268659	266192	57	268962	303	0	0	48
6.1.1	win	2020-04-16	19:19:45	1	1	1	USRTblock	1	USRT	51	600000	#ff0000	10pct	1	50pct	50pct	2000	268966	270974	268659	57	271358	384	0	0	49
6.1.1	win	2020-04-16	19:19:45	1	1	1	USRTblock	1	USRT	52	600000	#ff0000	10pct	1	50pct	50pct	3000	271361	274374	270974	57	274665	291	0	0	50
6.1.1	win	2020-04-16	19:19:45	1	1	1	USRTblock	1	USRT	53	600000	#ff0000	10pct	1	50pct	50pct	5000	274669	279674	274374	57	279957	283	0	0	51
6.1.1	win	2020-04-16	19:19:45	1	1	1	USRTblock	1	USRT	54	600000	#ff0000	10pct	1	50pct	50pct	3000	279961	282974	279674	57	283321	347	0	0	52
6.1.1	win	2020-04-16	19:19:45	1	1	1	USRTblock	1	USRT	55	600000	#ff0000	10pct	1	50pct	50pct	5000	283324	288340	282974	57	288684	344	0	0	53
6.1.1	win	2020-04-16	19:19:45	1	1	1	USRTblock	1	USRT	56	600000	#ff0000	10pct	1	50pct	50pct	5000	288689	293706	288340	57	293963	257	0	0	54
6.1.1	win	2020-04-16	19:19:45	1	1	1	USRTblock	1	USRT	57	600000	#ff0000	10pct	1	50pct	50pct	8000	293966	301972	293706	57	302286	314	0	0	55
6.1.1	win	2020-04-16	19:19:45	1	1	1	USRTblock	1	USRT	58	600000	#ff0000	10pct	1	50pct	50pct	4000	302290	306305	301972	57	306633	328	0	0	56
6.1.1	win	2020-04-16	19:19:45	1	1	1	USRTblock	1	USRT	59	600000	#ff0000	10pct	1	50pct	50pct	5000	306637	311654	306305	57	311944	290	0	0	57
6.1.1	win	2020-04-16	19:19:45	1	1	1	USRTblock	1	USRT	60	600000	#ff0000	10pct	1	50pct	50pct	2000	311947	313953	311654	57	314304	351	0	0	58
6.1.1	win	2020-04-16	19:19:45	1	1	1	USRTblock	1	USRT	61	600000	#ff0000	10pct	1	50pct	50pct	7000	314307	321320	313953	57	321596	276	0	0	59
6.1.1	win	2020-04-16	19:19:45	1	1	1	USRTblock	1	USRT	62	600000	#ff0000	10pct	1	50pct	50pct	4000	321599	325620	321320	57	326014	394	0	0	60
6.1.1	win	2020-04-16	19:19:45	1	1	1	USRTblock	1	USRT	63	600000	#ff0000	10pct	1	50pct	50pct	2000	326017	328035	325620	57	328351	316	0	0	61
6.1.1	win	2020-04-16	19:19:45	1	1	1	USRTblock	1	USRT	64	600000	#ff0000	10pct	1	50pct	50pct	5000	328355	333369	328035	57	333624	255	0	0	62
6.1.1	win	2020-04-16	19:19:45	1	1	1	USRTblock	1	USRT	65	600000	#ff0000	10pct	1	50pct	50pct	5000	333628	338635	333369	57	338886	251	0	0	63
6.1.1	win	2020-04-16	19:19:45	1	1	1	USRTblock	1	USRT	66	600000	#ff0000	10pct	1	50pct	50pct	8000	338889	346901	338635	57	347172	271	0	0	64
6.1.1	win	2020-04-16	19:19:45	1	1	1	USRTblock	1	USRT	67	600000	#ff0000	10pct	1	50pct	50pct	7000	347176	354184	346901	57	354483	299	0	0	65
6.1.1	win	2020-04-16	19:19:45	1	1	1	USRTblock	1	USRT	68	600000	#ff0000	10pct	1	50pct	50pct	2000	354486	356499	354184	57	356827	328	0	0	66
6.1.1	win	2020-04-16	19:19:45	1	1	1	USRTblock	1	USRT	69	600000	#ff0000	10pct	1	50pct	50pct	5000	356832	361849	356499	57	362197	348	0	0	67
6.1.1	win	2020-04-16	19:19:45	1	1	1	USRTblock	1	USRT	70	600000	#ff0000	10pct	1	50pct	50pct	7000	362201	369215	361849	57	369566	351	0	0	68
6.1.1	win	2020-04-16	19:19:45	1	1	1	USRTblock	1	USRT	71	600000	#ff0000	10pct	1	50pct	50pct	5000	369570	374581	369215	57	374990	409	0	0	69
6.1.1	win	2020-04-16	19:19:45	1	1	1	USRTblock	1	USRT	72	600000	#ff0000	10pct	1	50pct	50pct	4000	374993	379014	374581	57	379538	524	0	0	70
6.1.1	win	2020-04-16	19:19:45	1	1	1	USRTblock	1	USRT	73	600000	#ff0000	10pct	1	50pct	50pct	6000	379541	385547	379014	57	385842	295	0	0	71
6.1.1	win	2020-04-16	19:19:45	1	1	1	USRTblock	1	USRT	74	600000	#ff0000	10pct	1	50pct	50pct	4000	385846	389863	385547	57	390177	314	0	0	72
6.1.1	win	2020-04-16	19:19:45	1	1	1	USRTblock	1	USRT	75	600000	#ff0000	10pct	1	50pct	50pct	7000	390181	397196	389863	57	397457	261	0	0	73
6.1.1	win	2020-04-16	19:19:45	1	1	1	USRTblock	1	USRT	76	600000	#ff0000	10pct	1	50pct	50pct	7000	397461	404479	397196	57	404792	313	0	0	74
6.1.1	win	2020-04-16	19:19:45	1	1	1	USRTblock	1	USRT	77	600000	#ff0000	10pct	1	50pct	50pct	5000	404796	409811	404479	57	410148	337	0	0	75
6.1.1	win	2020-04-16	19:19:45	1	1	1	USRTblock	1	USRT	78	600000	#ff0000	10pct	1	50pct	50pct	3000	410151	413161	409811	57	413483	322	0	0	76
6.1.1	win	2020-04-16	19:19:45	1	1	1	USRTblock	1	USRT	79	600000	#ff0000	10pct	1	50pct	50pct	5000	413487	418493	413161	57	418784	291	0	0	77
6.1.1	win	2020-04-16	19:19:45	1	1	1	USRTblock	1	USRT	80	600000	#ff0000	10pct	1	50pct	50pct	2000	418788	420793	418493	57	421138	345	0	0	78
6.1.1	win	2020-04-16	19:19:45	1	1	1	USRTblock	1	USRT	81	600000	#ff0000	10pct	1	50pct	50pct	8000	421141	429159	420793	57	429477	318	0	0	79
6.1.1	win	2020-04-16	19:19:45	1	1	1	USRTblock	1	USRT	82	600000	#ff0000	10pct	1	50pct	50pct	5000	429481	434491	429159	57	434798	307	0	0	80
6.1.1	win	2020-04-16	19:19:45	1	1	1	USRTblock	1	USRT	83	600000	#ff0000	10pct	1	50pct	50pct	5000	434801	439808	434491	57	440123	315	0	0	81
6.1.1	win	2020-04-16	19:19:45	1	1	1	USRTblock	1	USRT	84	600000	#ff0000	10pct	1	50pct	50pct	5000	440126	445141	439808	57	445443	302	0	0	82
6.1.1	win	2020-04-16	19:19:45	1	1	1	USRTblock	1	USRT	85	600000	#ff0000	10pct	1	50pct	50pct	3000	445447	448457	445141	57	448972	515	0	0	83
6.1.1	win	2020-04-16	19:19:45	1	1	1	USRTblock	1	USRT	86	600000	#ff0000	10pct	1	50pct	50pct	8000	448975	456990	448457	57	457288	298	0	0	84
6.1.1	win	2020-04-16	19:19:45	1	1	1	USRTblock	1	USRT	87	600000	#ff0000	10pct	1	50pct	50pct	8000	457291	465306	456990	57	465639	333	0	0	85
6.1.1	win	2020-04-16	19:19:45	1	1	1	USRTblock	1	USRT	88	600000	#ff0000	10pct	1	50pct	50pct	8000	465643	473655	465306	57	474262	607	0	0	86
6.1.1	win	2020-04-16	19:19:45	1	1	1	USRTblock	1	USRT	89	600000	#ff0000	10pct	1	50pct	50pct	6000	474267	480288	473655	57	480717	429	0	0	87
6.1.1	win	2020-04-16	19:19:45	1	1	1	USRTblock	1	USRT	90	600000	#ff0000	10pct	1	50pct	50pct	7000	480720	487737	480288	57	488047	310	0	0	88
6.1.1	win	2020-04-16	19:19:45	1	1	1	USRTblock	1	USRT	91	600000	#ff0000	10pct	1	50pct	50pct	3000	488051	491069	487737	57	491433	364	0	0	89
6.1.1	win	2020-04-16	19:19:45	1	1	1	USRTblock	1	USRT	92	600000	#ff0000	10pct	1	50pct	50pct	5000	491437	496452	491069	57	496826	374	0	0	90
6.1.1	win	2020-04-16	19:19:45	1	1	1	USRTblock	1	USRT	93	600000	#ff0000	10pct	1	50pct	50pct	7000	496829	503835	496452	57	504326	491	0	0	91
6.1.1	win	2020-04-16	19:19:45	1	1	1	USRTblock	1	USRT	94	600000	#ff0000	10pct	1	50pct	50pct	3000	504329	507334	503835	57	507756	422	0	0	92
6.1.1	win	2020-04-16	19:19:45	1	1	1	USRTblock	1	USRT	95	600000	#ff0000	10pct	1	50pct	50pct	3000	507760	510784	507334	57	511189	405	0	0	93
6.1.1	win	2020-04-16	19:19:45	1	1	1	USRTblock	1	USRT	96	600000	#ff0000	10pct	1	50pct	50pct	3000	511192	514200	510784	57	514675	475	0	0	94
6.1.1	win	2020-04-16	19:19:45	1	1	1	USRTblock	1	USRT	97	600000	#ff0000	10pct	1	50pct	50pct	2000	514680	516700	514200	57	517038	338	0	0	95
6.1.1	win	2020-04-16	19:19:45	1	1	1	USRTblock	1	USRT	98	600000	#ff0000	10pct	1	50pct	50pct	2000	517041	519050	516700	57	519373	323	0	0	96
6.1.1	win	2020-04-16	19:19:45	1	1	1	USRTblock	1	USRT	99	600000	#ff0000	10pct	1	50pct	50pct	2000	519378	521399	519050	57	521685	286	0	0	97
6.1.1	win	2020-04-16	19:19:45	1	1	1	USRTblock	1	USRT	100	600000	#ff0000	10pct	1	50pct	50pct	4000	521688	525699	521399	57	526029	330	0	0	98
6.1.1	win	2020-04-16	19:19:45	1	1	1	USRTblock	1	USRT	101	600000	#ff0000	10pct	1	50pct	50pct	6000	526032	532048	525699	57	532300	252	0	0	99
6.1.1	win	2020-04-16	19:19:45	1	1	1	USRTblock	1	USRT	102	600000	#ff0000	10pct	1	50pct	50pct	3000	532303	535315	532048	57	535607	292	0	0	100
6.1.1	win	2020-04-16	19:19:45	1	1	1	USRTblock	1	USRT	103	600000	#ff0000	10pct	1	50pct	50pct	6000	535611	541632	535315	57	541860	228	0	0	101
6.1.1	win	2020-04-16	19:19:45	1	1	1	USRTblock	1	USRT	104	600000	#ff0000	10pct	1	50pct	50pct	3000	541863	544880	541632	57	545288	408	0	0	102
6.1.1	win	2020-04-16	19:19:45	1	1	1	USRTblock	1	USRT	105	600000	#ff0000	10pct	1	50pct	50pct	6000	545291	551297	544880	57	551560	263	0	0	103
6.1.1	win	2020-04-16	19:19:45	1	1	1	USRTblock	1	USRT	106	600000	#ff0000	10pct	1	50pct	50pct	6000	551564	557580	551297	57	557842	262	0	0	104
6.1.1	win	2020-04-16	19:19:45	1	1	1	USRTblock	1	USRT	107	600000	#ff0000	10pct	1	50pct	50pct	5000	557846	562862	557580	57	563087	225	0	0	105
6.1.1	win	2020-04-16	19:19:45	1	1	1	USRTblock	1	USRT	108	600000	#ff0000	10pct	1	50pct	50pct	4000	563091	567112	562862	57	567335	223	0	0	106
6.1.1	win	2020-04-16	19:19:45	1	1	1	USRTblock	1	USRT	109	600000	#ff0000	10pct	1	50pct	50pct	2000	567339	569344	567112	57	569617	273	0	0	107
6.1.1	win	2020-04-16	19:19:45	1	1	1	USRTblock	1	USRT	110	600000	#ff0000	10pct	1	50pct	50pct	2000	569621	571628	569344	57	571910	282	0	0	108
6.1.1	win	2020-04-16	19:19:45	1	1	1	USRTblock	1	USRT	111	600000	#ff0000	10pct	1	50pct	50pct	2000	571914	573927	571628	57	574207	280	0	0	109
6.1.1	win	2020-04-16	19:19:45	1	1	1	USRTblock	1	USRT	112	600000	#ff0000	10pct	1	50pct	50pct	2000	574211	576227	573927	57	576486	259	0	0	110
6.1.1	win	2020-04-16	19:19:45	1	1	1	USRTblock	1	USRT	113	600000	#ff0000	10pct	1	50pct	50pct	2000	576490	578510	576227	57	578763	253	0	0	111
6.1.1	win	2020-04-16	19:19:45	1	1	1	USRTblock	1	USRT	114	600000	#ff0000	10pct	1	50pct	50pct	3000	578768	581777	578510	57	582027	250	0	0	112
6.1.1	win	2020-04-16	19:19:45	1	1	1	USRTblock	1	USRT	115	600000	#ff0000	10pct	1	50pct	50pct	5000	582031	587043	581777	57	587303	260	0	0	113
6.1.1	win	2020-04-16	19:19:45	1	1	1	USRTblock	1	USRT	116	600000	#ff0000	10pct	1	50pct	50pct	6000	587306	593326	587043	57	593601	275	0	0	114
6.1.1	win	2020-04-16	19:19:45	1	1	1	USRTblock	1	USRT	117	600000	#ff0000	10pct	1	50pct	50pct	3000	593605	596625	593326	57	596881	256	0	0	115
6.1.1	win	2020-04-16	19:19:45	1	1	1	USRTblock	1	USRT	118	600000	#ff0000	10pct	1	50pct	50pct	3000	596885	599892	596625	57	600216	324	0	0	116
6.1.1	win	2020-04-16	19:19:45	1	1	1	USRTblock	1	USRT	119	600000	#ff0000	10pct	1	50pct	50pct	2000	600220	-1	599892	0	600321	0	1	1	117
