build	computer.platform	date	time	subject	group	sessionid	blockcode	blocknum	trialcode	trialnum	testduration	targetcolor	targetsize	fixed	targetx	targety	stiminterval	trialStart	shape.targetcircle.timestamp	lastCircleTimestamp	response	rt_elapsed	rt	EarlyResponse	countEarlyResponses	countResponses
6.1.1	win	2020-04-17	16:06:18	1	1	1	USRTblock	1	USRT	3	600000	#ff0000	10pct	1	50pct	50pct	8000	125862	133872	125136	57	134112	240	0	0	1
6.1.1	win	2020-04-17	16:06:18	1	1	1	USRTblock	1	USRT	4	600000	#ff0000	10pct	1	50pct	50pct	3000	134146	137155	133872	57	137401	246	0	0	2
6.1.1	win	2020-04-17	16:06:18	1	1	1	USRTblock	1	USRT	5	600000	#ff0000	10pct	1	50pct	50pct	6000	137404	143421	137155	57	143668	247	0	0	3
6.1.1	win	2020-04-17	16:06:18	1	1	1	USRTblock	1	USRT	6	600000	#ff0000	10pct	1	50pct	50pct	2000	143672	145688	143421	57	145966	278	0	0	4
6.1.1	win	2020-04-17	16:06:18	1	1	1	USRTblock	1	USRT	7	600000	#ff0000	10pct	1	50pct	50pct	3000	145969	148987	145688	57	149240	253	0	0	5
6.1.1	win	2020-04-17	16:06:18	1	1	1	USRTblock	1	USRT	8	600000	#ff0000	10pct	1	50pct	50pct	6000	149243	155254	148987	57	155595	341	0	0	6
6.1.1	win	2020-04-17	16:06:18	1	1	1	USRTblock	1	USRT	9	600000	#ff0000	10pct	1	50pct	50pct	8000	155599	163619	155254	57	163898	279	0	0	7
6.1.1	win	2020-04-17	16:06:18	1	1	1	USRTblock	1	USRT	10	600000	#ff0000	10pct	1	50pct	50pct	4000	163901	167919	163619	57	168159	240	0	0	8
6.1.1	win	2020-04-17	16:06:18	1	1	1	USRTblock	1	USRT	11	600000	#ff0000	10pct	1	50pct	50pct	6000	168163	174168	167919	57	174430	262	0	0	9
6.1.1	win	2020-04-17	16:06:18	1	1	1	USRTblock	1	USRT	12	600000	#ff0000	10pct	1	50pct	50pct	6000	174434	180451	174168	57	180725	274	0	0	10
6.1.1	win	2020-04-17	16:06:18	1	1	1	USRTblock	1	USRT	13	600000	#ff0000	10pct	1	50pct	50pct	7000	180729	187750	180451	57	188011	261	0	0	11
6.1.1	win	2020-04-17	16:06:18	1	1	1	USRTblock	1	USRT	14	600000	#ff0000	10pct	1	50pct	50pct	3000	188015	191033	187750	57	191368	335	0	0	12
6.1.1	win	2020-04-17	16:06:18	1	1	1	USRTblock	1	USRT	15	600000	#ff0000	10pct	1	50pct	50pct	2000	191372	193383	191033	57	193702	319	0	0	13
6.1.1	win	2020-04-17	16:06:18	1	1	1	USRTblock	1	USRT	16	600000	#ff0000	10pct	1	50pct	50pct	4000	193706	197716	193383	57	197981	265	0	0	14
6.1.1	win	2020-04-17	16:06:18	1	1	1	USRTblock	1	USRT	17	600000	#ff0000	10pct	1	50pct	50pct	8000	197984	-1	197716	57	204185	0	1	1	15
6.1.1	win	2020-04-17	16:06:18	1	1	1	USRTblock	1	USRT	18	600000	#ff0000	10pct	1	50pct	50pct	6000	204188	210198	-1	57	210461	263	0	1	16
6.1.1	win	2020-04-17	16:06:18	1	1	1	USRTblock	1	USRT	19	600000	#ff0000	10pct	1	50pct	50pct	3000	210464	213480	210198	57	213830	350	0	1	17
6.1.1	win	2020-04-17	16:06:18	1	1	1	USRTblock	1	USRT	20	600000	#ff0000	10pct	1	50pct	50pct	2000	213835	215847	213480	57	216214	367	0	1	18
6.1.1	win	2020-04-17	16:06:18	1	1	1	USRTblock	1	USRT	21	600000	#ff0000	10pct	1	50pct	50pct	5000	216217	221230	215847	57	221484	254	0	1	19
6.1.1	win	2020-04-17	16:06:18	1	1	1	USRTblock	1	USRT	22	600000	#ff0000	10pct	1	50pct	50pct	8000	221487	229496	221230	57	229732	236	0	1	20
6.1.1	win	2020-04-17	16:06:18	1	1	1	USRTblock	1	USRT	23	600000	#ff0000	10pct	1	50pct	50pct	3000	229736	232745	229496	57	233036	291	0	1	21
6.1.1	win	2020-04-17	16:06:18	1	1	1	USRTblock	1	USRT	24	600000	#ff0000	10pct	1	50pct	50pct	3000	233041	236061	232745	57	236310	249	0	1	22
6.1.1	win	2020-04-17	16:06:18	1	1	1	USRTblock	1	USRT	25	600000	#ff0000	10pct	1	50pct	50pct	3000	236314	239328	236061	57	239573	245	0	1	23
6.1.1	win	2020-04-17	16:06:18	1	1	1	USRTblock	1	USRT	26	600000	#ff0000	10pct	1	50pct	50pct	7000	239577	246594	239328	57	246837	243	0	1	24
6.1.1	win	2020-04-17	16:06:18	1	1	1	USRTblock	1	USRT	27	600000	#ff0000	10pct	1	50pct	50pct	8000	246841	254860	246594	57	255112	252	0	1	25
6.1.1	win	2020-04-17	16:06:18	1	1	1	USRTblock	1	USRT	28	600000	#ff0000	10pct	1	50pct	50pct	3000	255116	258126	254860	57	258405	279	0	1	26
6.1.1	win	2020-04-17	16:06:18	1	1	1	USRTblock	1	USRT	29	600000	#ff0000	10pct	1	50pct	50pct	6000	258408	264425	258126	57	264691	266	0	1	27
6.1.1	win	2020-04-17	16:06:18	1	1	1	USRTblock	1	USRT	30	600000	#ff0000	10pct	1	50pct	50pct	3000	264695	267708	264425	57	267993	285	0	1	28
6.1.1	win	2020-04-17	16:06:18	1	1	1	USRTblock	1	USRT	31	600000	#ff0000	10pct	1	50pct	50pct	4000	267996	272008	267708	57	272301	293	0	1	29
6.1.1	win	2020-04-17	16:06:18	1	1	1	USRTblock	1	USRT	32	600000	#ff0000	10pct	1	50pct	50pct	3000	272305	275324	272008	57	275629	305	0	1	30
6.1.1	win	2020-04-17	16:06:18	1	1	1	USRTblock	1	USRT	33	600000	#ff0000	10pct	1	50pct	50pct	6000	275633	281640	275324	57	281922	282	0	1	31
6.1.1	win	2020-04-17	16:06:18	1	1	1	USRTblock	1	USRT	34	600000	#ff0000	10pct	1	50pct	50pct	2000	281926	283940	281640	57	284312	372	0	1	32
6.1.1	win	2020-04-17	16:06:18	1	1	1	USRTblock	1	USRT	35	600000	#ff0000	10pct	1	50pct	50pct	4000	284316	288323	283940	57	288654	331	0	1	33
6.1.1	win	2020-04-17	16:06:18	1	1	1	USRTblock	1	USRT	36	600000	#ff0000	10pct	1	50pct	50pct	6000	288658	294673	288323	57	294935	262	0	1	34
6.1.1	win	2020-04-17	16:06:18	1	1	1	USRTblock	1	USRT	37	600000	#ff0000	10pct	1	50pct	50pct	2000	294939	296956	294673	57	297304	348	0	1	35
6.1.1	win	2020-04-17	16:06:18	1	1	1	USRTblock	1	USRT	38	600000	#ff0000	10pct	1	50pct	50pct	5000	297308	302322	296956	57	302650	328	0	1	36
6.1.1	win	2020-04-17	16:06:18	1	1	1	USRTblock	1	USRT	39	600000	#ff0000	10pct	1	50pct	50pct	3000	302654	305671	302322	57	305982	311	0	1	37
6.1.1	win	2020-04-17	16:06:18	1	1	1	USRTblock	1	USRT	40	600000	#ff0000	10pct	1	50pct	50pct	5000	305985	311005	305671	57	311280	275	0	1	38
6.1.1	win	2020-04-17	16:06:18	1	1	1	USRTblock	1	USRT	41	600000	#ff0000	10pct	1	50pct	50pct	5000	311283	316304	311005	57	316599	295	0	1	39
6.1.1	win	2020-04-17	16:06:18	1	1	1	USRTblock	1	USRT	42	600000	#ff0000	10pct	1	50pct	50pct	2000	316603	318620	316304	57	318919	299	0	1	40
6.1.1	win	2020-04-17	16:06:18	1	1	1	USRTblock	1	USRT	43	600000	#ff0000	10pct	1	50pct	50pct	4000	318923	322937	318620	57	323330	393	0	1	41
6.1.1	win	2020-04-17	16:06:18	1	1	1	USRTblock	1	USRT	44	600000	#ff0000	10pct	1	50pct	50pct	4000	323334	327353	322937	57	327651	298	0	1	42
6.1.1	win	2020-04-17	16:06:18	1	1	1	USRTblock	1	USRT	45	600000	#ff0000	10pct	1	50pct	50pct	5000	327655	332669	327353	57	332935	266	0	1	43
6.1.1	win	2020-04-17	16:06:18	1	1	1	USRTblock	1	USRT	46	600000	#ff0000	10pct	1	50pct	50pct	8000	332938	340951	332669	57	341228	277	0	1	44
6.1.1	win	2020-04-17	16:06:18	1	1	1	USRTblock	1	USRT	47	600000	#ff0000	10pct	1	50pct	50pct	2000	341232	343250	340951	57	343759	509	0	1	45
6.1.1	win	2020-04-17	16:06:18	1	1	1	USRTblock	1	USRT	48	600000	#ff0000	10pct	1	50pct	50pct	6000	343763	349783	343250	57	350082	299	0	1	46
6.1.1	win	2020-04-17	16:06:18	1	1	1	USRTblock	1	USRT	49	600000	#ff0000	10pct	1	50pct	50pct	2000	350085	352100	349783	57	352412	312	0	1	47
6.1.1	win	2020-04-17	16:06:18	1	1	1	USRTblock	1	USRT	50	600000	#ff0000	10pct	1	50pct	50pct	2000	352415	354433	352100	57	354739	306	0	1	48
6.1.1	win	2020-04-17	16:06:18	1	1	1	USRTblock	1	USRT	51	600000	#ff0000	10pct	1	50pct	50pct	2000	354742	356749	354433	57	357260	511	0	1	49
6.1.1	win	2020-04-17	16:06:18	1	1	1	USRTblock	1	USRT	52	600000	#ff0000	10pct	1	50pct	50pct	2000	357263	359283	356749	57	359585	302	0	1	50
6.1.1	win	2020-04-17	16:06:18	1	1	1	USRTblock	1	USRT	53	600000	#ff0000	10pct	1	50pct	50pct	5000	359588	364599	359283	57	364868	269	0	1	51
6.1.1	win	2020-04-17	16:06:18	1	1	1	USRTblock	1	USRT	54	600000	#ff0000	10pct	1	50pct	50pct	7000	364871	371881	364599	57	372139	258	0	1	52
6.1.1	win	2020-04-17	16:06:18	1	1	1	USRTblock	1	USRT	55	600000	#ff0000	10pct	1	50pct	50pct	6000	372142	378148	371881	57	378471	323	0	1	53
6.1.1	win	2020-04-17	16:06:18	1	1	1	USRTblock	1	USRT	56	600000	#ff0000	10pct	1	50pct	50pct	4000	378474	382481	378148	57	382739	258	0	1	54
6.1.1	win	2020-04-17	16:06:18	1	1	1	USRTblock	1	USRT	57	600000	#ff0000	10pct	1	50pct	50pct	8000	382742	390763	382481	57	391044	281	0	1	55
6.1.1	win	2020-04-17	16:06:18	1	1	1	USRTblock	1	USRT	58	600000	#ff0000	10pct	1	50pct	50pct	4000	391048	395062	390763	57	395368	306	0	1	56
6.1.1	win	2020-04-17	16:06:18	1	1	1	USRTblock	1	USRT	59	600000	#ff0000	10pct	1	50pct	50pct	5000	395372	400379	395062	57	400630	251	0	1	57
6.1.1	win	2020-04-17	16:06:18	1	1	1	USRTblock	1	USRT	60	600000	#ff0000	10pct	1	50pct	50pct	8000	400633	408645	400379	57	408923	278	0	1	58
6.1.1	win	2020-04-17	16:06:18	1	1	1	USRTblock	1	USRT	61	600000	#ff0000	10pct	1	50pct	50pct	7000	408927	415944	408645	57	416189	245	0	1	59
6.1.1	win	2020-04-17	16:06:18	1	1	1	USRTblock	1	USRT	62	600000	#ff0000	10pct	1	50pct	50pct	8000	416193	424210	415944	57	424510	300	0	1	60
6.1.1	win	2020-04-17	16:06:18	1	1	1	USRTblock	1	USRT	63	600000	#ff0000	10pct	1	50pct	50pct	8000	424515	432526	424210	57	432845	319	0	1	61
6.1.1	win	2020-04-17	16:06:18	1	1	1	USRTblock	1	USRT	64	600000	#ff0000	10pct	1	50pct	50pct	2000	432848	434858	432526	57	435317	459	0	1	62
6.1.1	win	2020-04-17	16:06:18	1	1	1	USRTblock	1	USRT	65	600000	#ff0000	10pct	1	50pct	50pct	4000	435322	439341	434858	57	439620	279	0	1	63
6.1.1	win	2020-04-17	16:06:18	1	1	1	USRTblock	1	USRT	66	600000	#ff0000	10pct	1	50pct	50pct	3000	439625	442641	439341	57	443097	456	0	1	64
6.1.1	win	2020-04-17	16:06:18	1	1	1	USRTblock	1	USRT	67	600000	#ff0000	10pct	1	50pct	50pct	2000	443100	445107	442641	57	445464	357	0	1	65
6.1.1	win	2020-04-17	16:06:18	1	1	1	USRTblock	1	USRT	68	600000	#ff0000	10pct	1	50pct	50pct	8000	445468	453473	445107	57	453729	256	0	1	66
6.1.1	win	2020-04-17	16:06:18	1	1	1	USRTblock	1	USRT	69	600000	#ff0000	10pct	1	50pct	50pct	2000	453732	455739	453473	57	456157	418	0	1	67
6.1.1	win	2020-04-17	16:06:18	1	1	1	USRTblock	1	USRT	70	600000	#ff0000	10pct	1	50pct	50pct	6000	456161	462173	455739	57	462438	265	0	1	68
6.1.1	win	2020-04-17	16:06:18	1	1	1	USRTblock	1	USRT	71	600000	#ff0000	10pct	1	50pct	50pct	5000	462441	467455	462173	57	467837	382	0	1	69
6.1.1	win	2020-04-17	16:06:18	1	1	1	USRTblock	1	USRT	72	600000	#ff0000	10pct	1	50pct	50pct	5000	467840	472854	467455	57	473193	339	0	1	70
6.1.1	win	2020-04-17	16:06:18	1	1	1	USRTblock	1	USRT	73	600000	#ff0000	10pct	1	50pct	50pct	4000	473197	477204	472854	57	477470	266	0	1	71
6.1.1	win	2020-04-17	16:06:18	1	1	1	USRTblock	1	USRT	74	600000	#ff0000	10pct	1	50pct	50pct	6000	477473	483488	477204	57	483795	307	0	1	72
6.1.1	win	2020-04-17	16:06:18	1	1	1	USRTblock	1	USRT	75	600000	#ff0000	10pct	1	50pct	50pct	7000	483799	490820	483488	57	491073	253	0	1	73
6.1.1	win	2020-04-17	16:06:18	1	1	1	USRTblock	1	USRT	76	600000	#ff0000	10pct	1	50pct	50pct	5000	491077	496086	490820	57	496375	289	0	1	74
6.1.1	win	2020-04-17	16:06:18	1	1	1	USRTblock	1	USRT	77	600000	#ff0000	10pct	1	50pct	50pct	5000	496378	501385	496086	57	501660	275	0	1	75
6.1.1	win	2020-04-17	16:06:18	1	1	1	USRTblock	1	USRT	78	600000	#ff0000	10pct	1	50pct	50pct	5000	501663	506668	501385	57	507084	416	0	1	76
6.1.1	win	2020-04-17	16:06:18	1	1	1	USRTblock	1	USRT	79	600000	#ff0000	10pct	1	50pct	50pct	7000	507089	514102	506668	57	514376	274	0	1	77
6.1.1	win	2020-04-17	16:06:18	1	1	1	USRTblock	1	USRT	80	600000	#ff0000	10pct	1	50pct	50pct	3000	514379	517400	514102	57	518087	687	0	1	78
6.1.1	win	2020-04-17	16:06:18	1	1	1	USRTblock	1	USRT	81	600000	#ff0000	10pct	1	50pct	50pct	6000	518092	524099	517400	57	524353	254	0	1	79
6.1.1	win	2020-04-17	16:06:18	1	1	1	USRTblock	1	USRT	82	600000	#ff0000	10pct	1	50pct	50pct	2000	524356	526365	524099	57	526622	257	0	1	80
6.1.1	win	2020-04-17	16:06:18	1	1	1	USRTblock	1	USRT	83	600000	#ff0000	10pct	1	50pct	50pct	5000	526625	531632	526365	57	531901	269	0	1	81
6.1.1	win	2020-04-17	16:06:18	1	1	1	USRTblock	1	USRT	84	600000	#ff0000	10pct	1	50pct	50pct	6000	531905	537915	531632	57	538229	314	0	1	82
6.1.1	win	2020-04-17	16:06:18	1	1	1	USRTblock	1	USRT	85	600000	#ff0000	10pct	1	50pct	50pct	2000	538232	540247	537915	57	540682	435	0	1	83
6.1.1	win	2020-04-17	16:06:18	1	1	1	USRTblock	1	USRT	86	600000	#ff0000	10pct	1	50pct	50pct	2000	540685	542697	540247	57	543015	318	0	1	84
6.1.1	win	2020-04-17	16:06:18	1	1	1	USRTblock	1	USRT	87	600000	#ff0000	10pct	1	50pct	50pct	3000	543019	546030	542697	57	546261	231	0	1	85
6.1.1	win	2020-04-17	16:06:18	1	1	1	USRTblock	1	USRT	88	600000	#ff0000	10pct	1	50pct	50pct	3000	546264	549281	546030	57	549605	324	0	1	86
6.1.1	win	2020-04-17	16:06:18	1	1	1	USRTblock	1	USRT	89	600000	#ff0000	10pct	1	50pct	50pct	4000	549609	553629	549281	57	553888	259	0	1	87
6.1.1	win	2020-04-17	16:06:18	1	1	1	USRTblock	1	USRT	90	600000	#ff0000	10pct	1	50pct	50pct	8000	553891	561896	553629	57	562114	218	0	1	88
6.1.1	win	2020-04-17	16:06:18	1	1	1	USRTblock	1	USRT	91	600000	#ff0000	10pct	1	50pct	50pct	4000	562117	566129	561896	57	566398	269	0	1	89
6.1.1	win	2020-04-17	16:06:18	1	1	1	USRTblock	1	USRT	92	600000	#ff0000	10pct	1	50pct	50pct	6000	566403	572411	566129	57	572709	298	0	1	90
6.1.1	win	2020-04-17	16:06:18	1	1	1	USRTblock	1	USRT	93	600000	#ff0000	10pct	1	50pct	50pct	4000	572712	576727	572411	57	577033	306	0	1	91
6.1.1	win	2020-04-17	16:06:18	1	1	1	USRTblock	1	USRT	94	600000	#ff0000	10pct	1	50pct	50pct	7000	577038	584060	576727	57	584518	458	0	1	92
6.1.1	win	2020-04-17	16:06:18	1	1	1	USRTblock	1	USRT	95	600000	#ff0000	10pct	1	50pct	50pct	2000	584522	586543	584060	57	586927	384	0	1	93
6.1.1	win	2020-04-17	16:06:18	1	1	1	USRTblock	1	USRT	96	600000	#ff0000	10pct	1	50pct	50pct	5000	586930	591943	586543	57	592259	316	0	1	94
6.1.1	win	2020-04-17	16:06:18	1	1	1	USRTblock	1	USRT	97	600000	#ff0000	10pct	1	50pct	50pct	7000	592263	599276	591943	57	599528	252	0	1	95
6.1.1	win	2020-04-17	16:06:18	1	1	1	USRTblock	1	USRT	98	600000	#ff0000	10pct	1	50pct	50pct	7000	599532	-1	599276	57	605553	0	1	2	96
6.1.1	win	2020-04-17	16:06:18	1	1	1	USRTblock	1	USRT	99	600000	#ff0000	10pct	1	50pct	50pct	3000	605557	608574	-1	57	608924	350	0	2	97
6.1.1	win	2020-04-17	16:06:18	1	1	1	USRTblock	1	USRT	100	600000	#ff0000	10pct	1	50pct	50pct	6000	608928	614941	608574	57	615245	304	0	2	98
6.1.1	win	2020-04-17	16:06:18	1	1	1	USRTblock	1	USRT	101	600000	#ff0000	10pct	1	50pct	50pct	6000	615248	621256	614941	57	621560	304	0	2	99
6.1.1	win	2020-04-17	16:06:18	1	1	1	USRTblock	1	USRT	102	600000	#ff0000	10pct	1	50pct	50pct	8000	621566	629572	621256	57	629825	253	0	2	100
6.1.1	win	2020-04-17	16:06:18	1	1	1	USRTblock	1	USRT	103	600000	#ff0000	10pct	1	50pct	50pct	8000	629828	637839	629572	57	638098	259	0	2	101
6.1.1	win	2020-04-17	16:06:18	1	1	1	USRTblock	1	USRT	104	600000	#ff0000	10pct	1	50pct	50pct	2000	638101	640121	637839	57	640505	384	0	2	102
6.1.1	win	2020-04-17	16:06:18	1	1	1	USRTblock	1	USRT	105	600000	#ff0000	10pct	1	50pct	50pct	2000	640509	642521	640121	57	642828	307	0	2	103
6.1.1	win	2020-04-17	16:06:18	1	1	1	USRTblock	1	USRT	106	600000	#ff0000	10pct	1	50pct	50pct	5000	642832	647837	642521	57	648217	380	0	2	104
6.1.1	win	2020-04-17	16:06:18	1	1	1	USRTblock	1	USRT	107	600000	#ff0000	10pct	1	50pct	50pct	8000	648221	656236	647837	57	656509	273	0	2	105
6.1.1	win	2020-04-17	16:06:18	1	1	1	USRTblock	1	USRT	108	600000	#ff0000	10pct	1	50pct	50pct	5000	656513	661519	656236	57	661822	303	0	2	106
6.1.1	win	2020-04-17	16:06:18	1	1	1	USRTblock	1	USRT	109	600000	#ff0000	10pct	1	50pct	50pct	6000	661826	667835	661519	57	668128	293	0	2	107
6.1.1	win	2020-04-17	16:06:18	1	1	1	USRTblock	1	USRT	110	600000	#ff0000	10pct	1	50pct	50pct	4000	668131	672151	667835	57	672541	390	0	2	108
6.1.1	win	2020-04-17	16:06:18	1	1	1	USRTblock	1	USRT	111	600000	#ff0000	10pct	1	50pct	50pct	5000	672545	677551	672151	57	677846	295	0	2	109
6.1.1	win	2020-04-17	16:06:18	1	1	1	USRTblock	1	USRT	112	600000	#ff0000	10pct	1	50pct	50pct	7000	677849	684867	677551	57	685149	282	0	2	110
6.1.1	win	2020-04-17	16:06:18	1	1	1	USRTblock	1	USRT	113	600000	#ff0000	10pct	1	50pct	50pct	6000	685152	691166	684867	57	691464	298	0	2	111
6.1.1	win	2020-04-17	16:06:18	1	1	1	USRTblock	1	USRT	114	600000	#ff0000	10pct	1	50pct	50pct	4000	691467	695482	691166	57	695781	299	0	2	112
6.1.1	win	2020-04-17	16:06:18	1	1	1	USRTblock	1	USRT	115	600000	#ff0000	10pct	1	50pct	50pct	4000	695785	699799	695482	57	700072	273	0	2	113
6.1.1	win	2020-04-17	16:06:18	1	1	1	USRTblock	1	USRT	116	600000	#ff0000	10pct	1	50pct	50pct	4000	700076	704081	699799	57	704395	314	0	2	114
6.1.1	win	2020-04-17	16:06:18	1	1	1	USRTblock	1	USRT	117	600000	#ff0000	10pct	1	50pct	50pct	2000	704398	706414	704081	57	706861	447	0	2	115
6.1.1	win	2020-04-17	16:06:18	1	1	1	USRTblock	1	USRT	118	600000	#ff0000	10pct	1	50pct	50pct	6000	706865	712881	706414	57	713135	254	0	2	116
6.1.1	win	2020-04-17	16:06:18	1	1	1	USRTblock	1	USRT	119	600000	#ff0000	10pct	1	50pct	50pct	4000	713139	717147	712881	57	717384	237	0	2	117
6.1.1	win	2020-04-17	16:06:18	1	1	1	USRTblock	1	USRT	120	600000	#ff0000	10pct	1	50pct	50pct	7000	717387	-1	717147	0	717496	0	1	3	118
