build	computer.platform	date	time	subject	group	sessionid	blockcode	blocknum	trialcode	trialnum	testduration	targetcolor	targetsize	fixed	targetx	targety	stiminterval	trialStart	shape.targetcircle.timestamp	lastCircleTimestamp	response	rt_elapsed	rt	EarlyResponse	countEarlyResponses	countResponses
6.1.1	win	2020-04-15	13:44:17	1	1	1	USRTblock	1	USRT	3	600000	#ff0000	10pct	1	50pct	50pct	3000	6806	9824	5154	57	10104	280	0	0	1
6.1.1	win	2020-04-15	13:44:17	1	1	1	USRTblock	1	USRT	4	600000	#ff0000	10pct	1	50pct	50pct	4000	10116	14123	9824	57	14406	283	0	0	2
6.1.1	win	2020-04-15	13:44:17	1	1	1	USRTblock	1	USRT	5	600000	#ff0000	10pct	1	50pct	50pct	6000	14410	20424	14123	57	20685	261	0	0	3
6.1.1	win	2020-04-15	13:44:17	1	1	1	USRTblock	1	USRT	6	600000	#ff0000	10pct	1	50pct	50pct	6000	20689	26706	20424	57	26942	236	0	0	4
6.1.1	win	2020-04-15	13:44:17	1	1	1	USRTblock	1	USRT	7	600000	#ff0000	10pct	1	50pct	50pct	2000	26945	28955	26706	57	29225	270	0	0	5
6.1.1	win	2020-04-15	13:44:17	1	1	1	USRTblock	1	USRT	8	600000	#ff0000	10pct	1	50pct	50pct	2000	29230	31238	28955	57	31526	288	0	0	6
6.1.1	win	2020-04-15	13:44:17	1	1	1	USRTblock	1	USRT	9	600000	#ff0000	10pct	1	50pct	50pct	5000	31531	36554	31238	57	36811	257	0	0	7
6.1.1	win	2020-04-15	13:44:17	1	1	1	USRTblock	1	USRT	10	600000	#ff0000	10pct	1	50pct	50pct	4000	36815	40821	36554	57	41201	380	0	0	8
6.1.1	win	2020-04-15	13:44:17	1	1	1	USRTblock	1	USRT	11	600000	#ff0000	10pct	1	50pct	50pct	4000	41205	45220	40821	57	45519	299	0	0	9
6.1.1	win	2020-04-15	13:44:17	1	1	1	USRTblock	1	USRT	12	600000	#ff0000	10pct	1	50pct	50pct	6000	45523	51536	45220	57	51807	271	0	0	10
6.1.1	win	2020-04-15	13:44:17	1	1	1	USRTblock	1	USRT	13	600000	#ff0000	10pct	1	50pct	50pct	7000	51810	58820	51536	57	59120	300	0	0	11
6.1.1	win	2020-04-15	13:44:17	1	1	1	USRTblock	1	USRT	14	600000	#ff0000	10pct	1	50pct	50pct	4000	59123	63135	58820	57	63389	254	0	0	12
6.1.1	win	2020-04-15	13:44:17	1	1	1	USRTblock	1	USRT	15	600000	#ff0000	10pct	1	50pct	50pct	2000	63393	65401	63135	57	65770	369	0	0	13
6.1.1	win	2020-04-15	13:44:17	1	1	1	USRTblock	1	USRT	16	600000	#ff0000	10pct	1	50pct	50pct	6000	65774	71785	65401	57	72038	253	0	0	14
6.1.1	win	2020-04-15	13:44:17	1	1	1	USRTblock	1	USRT	17	600000	#ff0000	10pct	1	50pct	50pct	2000	72041	74052	71785	57	74418	366	0	0	15
6.1.1	win	2020-04-15	13:44:17	1	1	1	USRTblock	1	USRT	18	600000	#ff0000	10pct	1	50pct	50pct	7000	74422	81434	74052	57	81726	292	0	0	16
6.1.1	win	2020-04-15	13:44:17	1	1	1	USRTblock	1	USRT	19	600000	#ff0000	10pct	1	50pct	50pct	2000	81729	83750	81434	57	84062	312	0	0	17
6.1.1	win	2020-04-15	13:44:17	1	1	1	USRTblock	1	USRT	20	600000	#ff0000	10pct	1	50pct	50pct	7000	84067	91083	83750	57	91336	253	0	0	18
6.1.1	win	2020-04-15	13:44:17	1	1	1	USRTblock	1	USRT	21	600000	#ff0000	10pct	1	50pct	50pct	3000	91340	94349	91083	57	94635	286	0	0	19
6.1.1	win	2020-04-15	13:44:17	1	1	1	USRTblock	1	USRT	22	600000	#ff0000	10pct	1	50pct	50pct	6000	94638	100648	94349	57	100911	263	0	0	20
6.1.1	win	2020-04-15	13:44:17	1	1	1	USRTblock	1	USRT	23	600000	#ff0000	10pct	1	50pct	50pct	8000	100914	108931	100648	57	109232	301	0	0	21
6.1.1	win	2020-04-15	13:44:17	1	1	1	USRTblock	1	USRT	24	600000	#ff0000	10pct	1	50pct	50pct	5000	109236	114247	108931	57	114533	286	0	0	22
6.1.1	win	2020-04-15	13:44:17	1	1	1	USRTblock	1	USRT	25	600000	#ff0000	10pct	1	50pct	50pct	2000	114537	116546	114247	57	116838	292	0	0	23
6.1.1	win	2020-04-15	13:44:17	1	1	1	USRTblock	1	USRT	26	600000	#ff0000	10pct	1	50pct	50pct	3000	116841	119846	116546	57	120114	268	0	0	24
6.1.1	win	2020-04-15	13:44:17	1	1	1	USRTblock	1	USRT	27	600000	#ff0000	10pct	1	50pct	50pct	7000	120118	127130	119846	57	127409	279	0	0	25
6.1.1	win	2020-04-15	13:44:17	1	1	1	USRTblock	1	USRT	28	600000	#ff0000	10pct	1	50pct	50pct	2000	127413	129428	127130	57	129717	289	0	0	26
6.1.1	win	2020-04-15	13:44:17	1	1	1	USRTblock	1	USRT	29	600000	#ff0000	10pct	1	50pct	50pct	4000	129722	133744	129428	57	134052	308	0	0	27
6.1.1	win	2020-04-15	13:44:17	1	1	1	USRTblock	1	USRT	30	600000	#ff0000	10pct	1	50pct	50pct	8000	134055	142061	133744	57	142328	267	0	0	28
6.1.1	win	2020-04-15	13:44:17	1	1	1	USRTblock	1	USRT	31	600000	#ff0000	10pct	1	50pct	50pct	2000	142332	144343	142061	57	144723	380	0	0	29
6.1.1	win	2020-04-15	13:44:17	1	1	1	USRTblock	1	USRT	32	600000	#ff0000	10pct	1	50pct	50pct	8000	144726	152743	144343	57	153023	280	0	0	30
6.1.1	win	2020-04-15	13:44:17	1	1	1	USRTblock	1	USRT	33	600000	#ff0000	10pct	1	50pct	50pct	7000	153026	160043	152743	57	160425	382	0	0	31
6.1.1	win	2020-04-15	13:44:17	1	1	1	USRTblock	1	USRT	34	600000	#ff0000	10pct	1	50pct	50pct	6000	160428	166442	160043	57	166682	240	0	0	32
6.1.1	win	2020-04-15	13:44:17	1	1	1	USRTblock	1	USRT	35	600000	#ff0000	10pct	1	50pct	50pct	3000	166685	169692	166442	57	170018	326	0	0	33
6.1.1	win	2020-04-15	13:44:17	1	1	1	USRTblock	1	USRT	36	600000	#ff0000	10pct	1	50pct	50pct	4000	170023	174041	169692	57	174332	291	0	0	34
6.1.1	win	2020-04-15	13:44:17	1	1	1	USRTblock	1	USRT	37	600000	#ff0000	10pct	1	50pct	50pct	2000	174335	176340	174041	57	176683	343	0	0	35
6.1.1	win	2020-04-15	13:44:17	1	1	1	USRTblock	1	USRT	38	600000	#ff0000	10pct	1	50pct	50pct	2000	176687	178707	176340	57	179109	402	0	0	36
6.1.1	win	2020-04-15	13:44:17	1	1	1	USRTblock	1	USRT	39	600000	#ff0000	10pct	1	50pct	50pct	4000	179113	183124	178707	57	183423	299	0	0	37
6.1.1	win	2020-04-15	13:44:17	1	1	1	USRTblock	1	USRT	40	600000	#ff0000	10pct	1	50pct	50pct	7000	183428	190440	183124	57	190724	284	0	0	38
6.1.1	win	2020-04-15	13:44:17	1	1	1	USRTblock	1	USRT	41	600000	#ff0000	10pct	1	50pct	50pct	3000	190729	193739	190440	57	194052	313	0	0	39
6.1.1	win	2020-04-15	13:44:17	1	1	1	USRTblock	1	USRT	42	600000	#ff0000	10pct	1	50pct	50pct	5000	194055	199072	193739	57	199394	322	0	0	40
6.1.1	win	2020-04-15	13:44:17	1	1	1	USRTblock	1	USRT	43	600000	#ff0000	10pct	1	50pct	50pct	3000	199399	202421	199072	57	202791	370	0	0	41
6.1.1	win	2020-04-15	13:44:17	1	1	1	USRTblock	1	USRT	44	600000	#ff0000	10pct	1	50pct	50pct	6000	202795	208804	202421	57	209141	337	0	0	42
6.1.1	win	2020-04-15	13:44:17	1	1	1	USRTblock	1	USRT	45	600000	#ff0000	10pct	1	50pct	50pct	5000	209144	214154	208804	57	214421	267	0	0	43
6.1.1	win	2020-04-15	13:44:17	1	1	1	USRTblock	1	USRT	46	600000	#ff0000	10pct	1	50pct	50pct	2000	214425	216436	214154	57	216719	283	0	0	44
6.1.1	win	2020-04-15	13:44:17	1	1	1	USRTblock	1	USRT	47	600000	#ff0000	10pct	1	50pct	50pct	2000	216723	218736	216436	57	219061	325	0	0	45
6.1.1	win	2020-04-15	13:44:17	1	1	1	USRTblock	1	USRT	48	600000	#ff0000	10pct	1	50pct	50pct	4000	219065	223086	218736	57	223450	364	0	0	46
6.1.1	win	2020-04-15	13:44:17	1	1	1	USRTblock	1	USRT	49	600000	#ff0000	10pct	1	50pct	50pct	4000	223453	227469	223086	57	227707	238	0	0	47
6.1.1	win	2020-04-15	13:44:17	1	1	1	USRTblock	1	USRT	50	600000	#ff0000	10pct	1	50pct	50pct	3000	227711	230718	227469	57	230945	227	0	0	48
6.1.1	win	2020-04-15	13:44:17	1	1	1	USRTblock	1	USRT	51	600000	#ff0000	10pct	1	50pct	50pct	4000	230949	234968	230718	57	235204	236	0	0	49
6.1.1	win	2020-04-15	13:44:17	1	1	1	USRTblock	1	USRT	52	600000	#ff0000	10pct	1	50pct	50pct	6000	235207	241218	234968	57	241518	300	0	0	50
6.1.1	win	2020-04-15	13:44:17	1	1	1	USRTblock	1	USRT	53	600000	#ff0000	10pct	1	50pct	50pct	8000	241521	249533	241218	57	249811	278	0	0	51
6.1.1	win	2020-04-15	13:44:17	1	1	1	USRTblock	1	USRT	54	600000	#ff0000	10pct	1	50pct	50pct	3000	249814	252833	249533	57	253108	275	0	0	52
6.1.1	win	2020-04-15	13:44:17	1	1	1	USRTblock	1	USRT	55	600000	#ff0000	10pct	1	50pct	50pct	7000	253113	260133	252833	57	260349	216	0	0	53
6.1.1	win	2020-04-15	13:44:17	1	1	1	USRTblock	1	USRT	56	600000	#ff0000	10pct	1	50pct	50pct	8000	260353	268365	260133	57	268643	278	0	0	54
6.1.1	win	2020-04-15	13:44:17	1	1	1	USRTblock	1	USRT	57	600000	#ff0000	10pct	1	50pct	50pct	3000	268647	271664	268365	57	271933	269	0	0	55
6.1.1	win	2020-04-15	13:44:17	1	1	1	USRTblock	1	USRT	58	600000	#ff0000	10pct	1	50pct	50pct	6000	271936	277948	271664	57	278235	287	0	0	56
6.1.1	win	2020-04-15	13:44:17	1	1	1	USRTblock	1	USRT	59	600000	#ff0000	10pct	1	50pct	50pct	7000	278239	285247	277948	57	285499	252	0	0	57
6.1.1	win	2020-04-15	13:44:17	1	1	1	USRTblock	1	USRT	60	600000	#ff0000	10pct	1	50pct	50pct	6000	285502	291512	285247	57	291820	308	0	0	58
6.1.1	win	2020-04-15	13:44:17	1	1	1	USRTblock	1	USRT	61	600000	#ff0000	10pct	1	50pct	50pct	8000	291823	299828	291512	57	300076	248	0	0	59
6.1.1	win	2020-04-15	13:44:17	1	1	1	USRTblock	1	USRT	62	600000	#ff0000	10pct	1	50pct	50pct	7000	300079	307094	299828	57	307427	333	0	0	60
6.1.1	win	2020-04-15	13:44:17	1	1	1	USRTblock	1	USRT	63	600000	#ff0000	10pct	1	50pct	50pct	6000	307430	313444	307094	57	313746	302	0	0	61
6.1.1	win	2020-04-15	13:44:17	1	1	1	USRTblock	1	USRT	64	600000	#ff0000	10pct	1	50pct	50pct	3000	313749	316760	313444	57	317054	294	0	0	62
6.1.1	win	2020-04-15	13:44:17	1	1	1	USRTblock	1	USRT	65	600000	#ff0000	10pct	1	50pct	50pct	6000	317057	323076	316760	57	323326	250	0	0	63
6.1.1	win	2020-04-15	13:44:17	1	1	1	USRTblock	1	USRT	66	600000	#ff0000	10pct	1	50pct	50pct	4000	323329	327342	323076	57	327618	276	0	0	64
6.1.1	win	2020-04-15	13:44:17	1	1	1	USRTblock	1	USRT	67	600000	#ff0000	10pct	1	50pct	50pct	7000	327621	334642	327342	57	334897	255	0	0	65
6.1.1	win	2020-04-15	13:44:17	1	1	1	USRTblock	1	USRT	68	600000	#ff0000	10pct	1	50pct	50pct	8000	334901	342907	334642	57	343145	238	0	0	66
6.1.1	win	2020-04-15	13:44:17	1	1	1	USRTblock	1	USRT	69	600000	#ff0000	10pct	1	50pct	50pct	2000	343149	345173	342907	57	345538	365	0	0	67
6.1.1	win	2020-04-15	13:44:17	1	1	1	USRTblock	1	USRT	70	600000	#ff0000	10pct	1	50pct	50pct	8000	345541	353556	345173	57	353854	298	0	0	68
6.1.1	win	2020-04-15	13:44:17	1	1	1	USRTblock	1	USRT	71	600000	#ff0000	10pct	1	50pct	50pct	2000	353857	355872	353556	57	356565	693	0	0	69
6.1.1	win	2020-04-15	13:44:17	1	1	1	USRTblock	1	USRT	72	600000	#ff0000	10pct	1	50pct	50pct	2000	356569	358589	355872	57	358949	360	0	0	70
6.1.1	win	2020-04-15	13:44:17	1	1	1	USRTblock	1	USRT	73	600000	#ff0000	10pct	1	50pct	50pct	4000	358953	362972	358589	57	363264	292	0	0	71
6.1.1	win	2020-04-15	13:44:17	1	1	1	USRTblock	1	USRT	74	600000	#ff0000	10pct	1	50pct	50pct	8000	363269	371288	362972	57	371601	313	0	0	72
6.1.1	win	2020-04-15	13:44:17	1	1	1	USRTblock	1	USRT	75	600000	#ff0000	10pct	1	50pct	50pct	2000	371604	373620	371288	57	373899	279	0	0	73
6.1.1	win	2020-04-15	13:44:17	1	1	1	USRTblock	1	USRT	76	600000	#ff0000	10pct	1	50pct	50pct	6000	373902	-1	373620	57	376142	0	1	1	74
6.1.1	win	2020-04-15	13:44:17	1	1	1	USRTblock	1	USRT	77	600000	#ff0000	10pct	1	50pct	50pct	2000	376146	378153	-1	57	378419	266	0	1	75
6.1.1	win	2020-04-15	13:44:17	1	1	1	USRTblock	1	USRT	78	600000	#ff0000	10pct	1	50pct	50pct	6000	378424	384437	378153	57	384795	358	0	1	76
6.1.1	win	2020-04-15	13:44:17	1	1	1	USRTblock	1	USRT	79	600000	#ff0000	10pct	1	50pct	50pct	7000	384798	391820	384437	57	392076	256	0	1	77
6.1.1	win	2020-04-15	13:44:17	1	1	1	USRTblock	1	USRT	80	600000	#ff0000	10pct	1	50pct	50pct	3000	392079	395085	391820	57	395477	392	0	1	78
6.1.1	win	2020-04-15	13:44:17	1	1	1	USRTblock	1	USRT	81	600000	#ff0000	10pct	1	50pct	50pct	2000	395481	397501	395085	57	397796	295	0	1	79
6.1.1	win	2020-04-15	13:44:17	1	1	1	USRTblock	1	USRT	82	600000	#ff0000	10pct	1	50pct	50pct	4000	397800	401818	397501	57	402157	339	0	1	80
6.1.1	win	2020-04-15	13:44:17	1	1	1	USRTblock	1	USRT	83	600000	#ff0000	10pct	1	50pct	50pct	7000	402160	409167	401818	57	409422	255	0	1	81
6.1.1	win	2020-04-15	13:44:17	1	1	1	USRTblock	1	USRT	84	600000	#ff0000	10pct	1	50pct	50pct	3000	409426	412434	409167	57	412851	417	0	1	82
6.1.1	win	2020-04-15	13:44:17	1	1	1	USRTblock	1	USRT	85	600000	#ff0000	10pct	1	50pct	50pct	5000	412855	417867	412434	57	418138	271	0	1	83
6.1.1	win	2020-04-15	13:44:17	1	1	1	USRTblock	1	USRT	86	600000	#ff0000	10pct	1	50pct	50pct	8000	418143	-1	417867	57	425249	0	1	2	84
6.1.1	win	2020-04-15	13:44:17	1	1	1	USRTblock	1	USRT	87	600000	#ff0000	10pct	1	50pct	50pct	8000	425252	433265	-1	57	433607	342	0	2	85
6.1.1	win	2020-04-15	13:44:17	1	1	1	USRTblock	1	USRT	88	600000	#ff0000	10pct	1	50pct	50pct	8000	433611	441631	433265	57	441919	288	0	2	86
6.1.1	win	2020-04-15	13:44:17	1	1	1	USRTblock	1	USRT	89	600000	#ff0000	10pct	1	50pct	50pct	8000	441922	449930	441631	57	450236	306	0	2	87
6.1.1	win	2020-04-15	13:44:17	1	1	1	USRTblock	1	USRT	90	600000	#ff0000	10pct	1	50pct	50pct	5000	450239	455246	449930	57	455554	308	0	2	88
6.1.1	win	2020-04-15	13:44:17	1	1	1	USRTblock	1	USRT	91	600000	#ff0000	10pct	1	50pct	50pct	2000	455557	457562	455246	57	457837	275	0	2	89
6.1.1	win	2020-04-15	13:44:17	1	1	1	USRTblock	1	USRT	92	600000	#ff0000	10pct	1	50pct	50pct	3000	457841	460861	457562	57	461172	311	0	2	90
6.1.1	win	2020-04-15	13:44:17	1	1	1	USRTblock	1	USRT	93	600000	#ff0000	10pct	1	50pct	50pct	5000	461176	466195	460861	57	466525	330	0	2	91
6.1.1	win	2020-04-15	13:44:17	1	1	1	USRTblock	1	USRT	94	600000	#ff0000	10pct	1	50pct	50pct	3000	466529	469544	466195	57	469846	302	0	2	92
6.1.1	win	2020-04-15	13:44:17	1	1	1	USRTblock	1	USRT	95	600000	#ff0000	10pct	1	50pct	50pct	6000	469850	475860	469544	57	476333	473	0	2	93
6.1.1	win	2020-04-15	13:44:17	1	1	1	USRTblock	1	USRT	96	600000	#ff0000	10pct	1	50pct	50pct	2000	476337	478344	475860	57	478612	268	0	2	94
6.1.1	win	2020-04-15	13:44:17	1	1	1	USRTblock	1	USRT	97	600000	#ff0000	10pct	1	50pct	50pct	7000	478617	485626	478344	57	485924	298	0	2	95
6.1.1	win	2020-04-15	13:44:17	1	1	1	USRTblock	1	USRT	98	600000	#ff0000	10pct	1	50pct	50pct	2000	485928	487943	485626	57	488318	375	0	2	96
6.1.1	win	2020-04-15	13:44:17	1	1	1	USRTblock	1	USRT	99	600000	#ff0000	10pct	1	50pct	50pct	6000	488322	494342	487943	57	494682	340	0	2	97
6.1.1	win	2020-04-15	13:44:17	1	1	1	USRTblock	1	USRT	100	600000	#ff0000	10pct	1	50pct	50pct	2000	494686	496692	494342	57	496990	298	0	2	98
6.1.1	win	2020-04-15	13:44:17	1	1	1	USRTblock	1	USRT	101	600000	#ff0000	10pct	1	50pct	50pct	3000	496993	500008	496692	57	500325	317	0	2	99
6.1.1	win	2020-04-15	13:44:17	1	1	1	USRTblock	1	USRT	102	600000	#ff0000	10pct	1	50pct	50pct	8000	500329	508341	500008	57	508625	284	0	2	100
6.1.1	win	2020-04-15	13:44:17	1	1	1	USRTblock	1	USRT	103	600000	#ff0000	10pct	1	50pct	50pct	7000	508629	515640	508341	57	515885	245	0	2	101
6.1.1	win	2020-04-15	13:44:17	1	1	1	USRTblock	1	USRT	104	600000	#ff0000	10pct	1	50pct	50pct	4000	515889	519906	515640	57	520222	316	0	2	102
6.1.1	win	2020-04-15	13:44:17	1	1	1	USRTblock	1	USRT	105	600000	#ff0000	10pct	1	50pct	50pct	2000	520225	522238	519906	57	522580	342	0	2	103
6.1.1	win	2020-04-15	13:44:17	1	1	1	USRTblock	1	USRT	106	600000	#ff0000	10pct	1	50pct	50pct	6000	522583	528588	522238	57	528829	241	0	2	104
6.1.1	win	2020-04-15	13:44:17	1	1	1	USRTblock	1	USRT	107	600000	#ff0000	10pct	1	50pct	50pct	2000	528834	530854	528588	57	531126	272	0	2	105
6.1.1	win	2020-04-15	13:44:17	1	1	1	USRTblock	1	USRT	108	600000	#ff0000	10pct	1	50pct	50pct	6000	531130	537137	530854	57	537418	281	0	2	106
6.1.1	win	2020-04-15	13:44:17	1	1	1	USRTblock	1	USRT	109	600000	#ff0000	10pct	1	50pct	50pct	5000	537423	542437	537137	57	542674	237	0	2	107
6.1.1	win	2020-04-15	13:44:17	1	1	1	USRTblock	1	USRT	110	600000	#ff0000	10pct	1	50pct	50pct	7000	542678	549687	542437	57	549936	249	0	2	108
6.1.1	win	2020-04-15	13:44:17	1	1	1	USRTblock	1	USRT	111	600000	#ff0000	10pct	1	50pct	50pct	4000	549940	553952	549687	57	554293	341	0	2	109
6.1.1	win	2020-04-15	13:44:17	1	1	1	USRTblock	1	USRT	112	600000	#ff0000	10pct	1	50pct	50pct	4000	554297	558302	553952	57	558663	361	0	2	110
6.1.1	win	2020-04-15	13:44:17	1	1	1	USRTblock	1	USRT	113	600000	#ff0000	10pct	1	50pct	50pct	8000	558667	566685	558302	57	567103	418	0	2	111
6.1.1	win	2020-04-15	13:44:17	1	1	1	USRTblock	1	USRT	114	600000	#ff0000	10pct	1	50pct	50pct	6000	567106	573118	566685	57	573412	294	0	2	112
6.1.1	win	2020-04-15	13:44:17	1	1	1	USRTblock	1	USRT	115	600000	#ff0000	10pct	1	50pct	50pct	6000	573416	579433	573118	57	579694	261	0	2	113
6.1.1	win	2020-04-15	13:44:17	1	1	1	USRTblock	1	USRT	116	600000	#ff0000	10pct	1	50pct	50pct	4000	579697	583717	579433	57	584035	318	0	2	114
6.1.1	win	2020-04-15	13:44:17	1	1	1	USRTblock	1	USRT	117	600000	#ff0000	10pct	1	50pct	50pct	5000	584038	589049	583717	57	589275	226	0	2	115
6.1.1	win	2020-04-15	13:44:17	1	1	1	USRTblock	1	USRT	118	600000	#ff0000	10pct	1	50pct	50pct	5000	589279	594300	589049	57	594790	490	0	2	116
6.1.1	win	2020-04-15	13:44:17	1	1	1	USRTblock	1	USRT	119	600000	#ff0000	10pct	1	50pct	50pct	5000	594793	599798	594300	57	600071	273	0	2	117
6.1.1	win	2020-04-15	13:44:17	1	1	1	USRTblock	1	USRT	120	600000	#ff0000	10pct	1	50pct	50pct	4000	600075	604081	599798	0	600238	-3843	0	2	118
