build	computer.platform	date	time	subject	group	sessionid	blockcode	blocknum	trialcode	trialnum	testduration	targetcolor	targetsize	fixed	targetx	targety	stiminterval	trialStart	shape.targetcircle.timestamp	lastCircleTimestamp	response	rt_elapsed	rt	EarlyResponse	countEarlyResponses	countResponses
6.1.1	win	2020-04-16	13:42:45	1	1	1	USRTblock	1	USRT	3	600000	#ff0000	10pct	1	50pct	50pct	2000	2644	4652	1916	57	4914	262	0	0	1
6.1.1	win	2020-04-16	13:42:45	1	1	1	USRTblock	1	USRT	4	600000	#ff0000	10pct	1	50pct	50pct	3000	4939	7952	4652	57	8202	250	0	0	2
6.1.1	win	2020-04-16	13:42:45	1	1	1	USRTblock	1	USRT	5	600000	#ff0000	10pct	1	50pct	50pct	4000	8206	12219	7952	57	12477	258	0	0	3
6.1.1	win	2020-04-16	13:42:45	1	1	1	USRTblock	1	USRT	6	600000	#ff0000	10pct	1	50pct	50pct	5000	12481	17502	12219	57	17736	234	0	0	4
6.1.1	win	2020-04-16	13:42:45	1	1	1	USRTblock	1	USRT	7	600000	#ff0000	10pct	1	50pct	50pct	3000	17739	20752	17502	57	21068	316	0	0	5
6.1.1	win	2020-04-16	13:42:45	1	1	1	USRTblock	1	USRT	8	600000	#ff0000	10pct	1	50pct	50pct	4000	21072	25084	20752	57	25421	337	0	0	6
6.1.1	win	2020-04-16	13:42:45	1	1	1	USRTblock	1	USRT	9	600000	#ff0000	10pct	1	50pct	50pct	5000	25425	30435	25084	57	30709	274	0	0	7
6.1.1	win	2020-04-16	13:42:45	1	1	1	USRTblock	1	USRT	10	600000	#ff0000	10pct	1	50pct	50pct	5000	30713	35733	30435	57	36013	280	0	0	8
6.1.1	win	2020-04-16	13:42:45	1	1	1	USRTblock	1	USRT	11	600000	#ff0000	10pct	1	50pct	50pct	5000	36017	41033	35733	57	41426	393	0	0	9
6.1.1	win	2020-04-16	13:42:45	1	1	1	USRTblock	1	USRT	12	600000	#ff0000	10pct	1	50pct	50pct	8000	41430	49448	41033	57	49690	242	0	0	10
6.1.1	win	2020-04-16	13:42:45	1	1	1	USRTblock	1	USRT	13	600000	#ff0000	10pct	1	50pct	50pct	2000	49694	51714	49448	57	52019	305	0	0	11
6.1.1	win	2020-04-16	13:42:45	1	1	1	USRTblock	1	USRT	14	600000	#ff0000	10pct	1	50pct	50pct	4000	52023	56032	51714	57	56360	328	0	0	12
6.1.1	win	2020-04-16	13:42:45	1	1	1	USRTblock	1	USRT	15	600000	#ff0000	10pct	1	50pct	50pct	8000	56364	64381	56032	57	64704	323	0	0	13
6.1.1	win	2020-04-16	13:42:45	1	1	1	USRTblock	1	USRT	16	600000	#ff0000	10pct	1	50pct	50pct	3000	64707	67713	64381	57	68040	327	0	0	14
6.1.1	win	2020-04-16	13:42:45	1	1	1	USRTblock	1	USRT	17	600000	#ff0000	10pct	1	50pct	50pct	6000	68044	74063	67713	57	74463	400	0	0	15
6.1.1	win	2020-04-16	13:42:45	1	1	1	USRTblock	1	USRT	18	600000	#ff0000	10pct	1	50pct	50pct	4000	74467	78479	74063	57	78927	448	0	0	16
6.1.1	win	2020-04-16	13:42:45	1	1	1	USRTblock	1	USRT	19	600000	#ff0000	10pct	1	50pct	50pct	6000	78931	84945	78479	57	85236	291	0	0	17
6.1.1	win	2020-04-16	13:42:45	1	1	1	USRTblock	1	USRT	20	600000	#ff0000	10pct	1	50pct	50pct	2000	85240	87261	84945	57	87580	319	0	0	18
6.1.1	win	2020-04-16	13:42:45	1	1	1	USRTblock	1	USRT	21	600000	#ff0000	10pct	1	50pct	50pct	4000	87583	91594	87261	57	91976	382	0	0	19
6.1.1	win	2020-04-16	13:42:45	1	1	1	USRTblock	1	USRT	22	600000	#ff0000	10pct	1	50pct	50pct	6000	91980	97994	91594	57	98268	274	0	0	20
6.1.1	win	2020-04-16	13:42:45	1	1	1	USRTblock	1	USRT	23	600000	#ff0000	10pct	1	50pct	50pct	5000	98271	103276	97994	57	103599	323	0	0	21
6.1.1	win	2020-04-16	13:42:45	1	1	1	USRTblock	1	USRT	24	600000	#ff0000	10pct	1	50pct	50pct	7000	103603	110609	103276	57	110864	255	0	0	22
6.1.1	win	2020-04-16	13:42:45	1	1	1	USRTblock	1	USRT	25	600000	#ff0000	10pct	1	50pct	50pct	3000	110868	113875	110609	57	114244	369	0	0	23
6.1.1	win	2020-04-16	13:42:45	1	1	1	USRTblock	1	USRT	26	600000	#ff0000	10pct	1	50pct	50pct	4000	114248	118258	113875	57	118602	344	0	0	24
6.1.1	win	2020-04-16	13:42:45	1	1	1	USRTblock	1	USRT	27	600000	#ff0000	10pct	1	50pct	50pct	7000	118605	125624	118258	57	125928	304	0	0	25
6.1.1	win	2020-04-16	13:42:45	1	1	1	USRTblock	1	USRT	28	600000	#ff0000	10pct	1	50pct	50pct	6000	125931	131940	125624	57	132247	307	0	0	26
6.1.1	win	2020-04-16	13:42:45	1	1	1	USRTblock	1	USRT	29	600000	#ff0000	10pct	1	50pct	50pct	3000	132251	135256	131940	57	135528	272	0	0	27
6.1.1	win	2020-04-16	13:42:45	1	1	1	USRTblock	1	USRT	30	600000	#ff0000	10pct	1	50pct	50pct	4000	135532	139539	135256	57	139937	398	0	0	28
6.1.1	win	2020-04-16	13:42:45	1	1	1	USRTblock	1	USRT	31	600000	#ff0000	10pct	1	50pct	50pct	4000	139940	143955	139539	57	144328	373	0	0	29
6.1.1	win	2020-04-16	13:42:45	1	1	1	USRTblock	1	USRT	32	600000	#ff0000	10pct	1	50pct	50pct	6000	144331	150338	143955	57	150621	283	0	0	30
6.1.1	win	2020-04-16	13:42:45	1	1	1	USRTblock	1	USRT	33	600000	#ff0000	10pct	1	50pct	50pct	3000	150624	153638	150338	57	153937	299	0	0	31
6.1.1	win	2020-04-16	13:42:45	1	1	1	USRTblock	1	USRT	34	600000	#ff0000	10pct	1	50pct	50pct	3000	153940	156954	153638	57	157246	292	0	0	32
6.1.1	win	2020-04-16	13:42:45	1	1	1	USRTblock	1	USRT	35	600000	#ff0000	10pct	1	50pct	50pct	6000	157250	163271	156954	57	163687	416	0	0	33
6.1.1	win	2020-04-16	13:42:45	1	1	1	USRTblock	1	USRT	36	600000	#ff0000	10pct	1	50pct	50pct	2000	163691	165704	163271	57	166123	419	0	0	34
6.1.1	win	2020-04-16	13:42:45	1	1	1	USRTblock	1	USRT	37	600000	#ff0000	10pct	1	50pct	50pct	5000	166127	171136	165704	57	171464	328	0	0	35
6.1.1	win	2020-04-16	13:42:45	1	1	1	USRTblock	1	USRT	38	600000	#ff0000	10pct	1	50pct	50pct	5000	171467	176486	171136	57	176804	318	0	0	36
6.1.1	win	2020-04-16	13:42:45	1	1	1	USRTblock	1	USRT	39	600000	#ff0000	10pct	1	50pct	50pct	7000	176809	183818	176486	57	184141	323	0	0	37
6.1.1	win	2020-04-16	13:42:45	1	1	1	USRTblock	1	USRT	40	600000	#ff0000	10pct	1	50pct	50pct	3000	184145	187152	183818	57	187458	306	0	0	38
6.1.1	win	2020-04-16	13:42:45	1	1	1	USRTblock	1	USRT	41	600000	#ff0000	10pct	1	50pct	50pct	2000	187462	189468	187152	57	189764	296	0	0	39
6.1.1	win	2020-04-16	13:42:45	1	1	1	USRTblock	1	USRT	42	600000	#ff0000	10pct	1	50pct	50pct	7000	189767	196784	189468	57	197088	304	0	0	40
6.1.1	win	2020-04-16	13:42:45	1	1	1	USRTblock	1	USRT	43	600000	#ff0000	10pct	1	50pct	50pct	8000	197091	205099	196784	57	205363	264	0	0	41
6.1.1	win	2020-04-16	13:42:45	1	1	1	USRTblock	1	USRT	44	600000	#ff0000	10pct	1	50pct	50pct	4000	205366	209382	205099	57	209751	369	0	0	42
6.1.1	win	2020-04-16	13:42:45	1	1	1	USRTblock	1	USRT	45	600000	#ff0000	10pct	1	50pct	50pct	8000	209755	217765	209382	57	218109	344	0	0	43
6.1.1	win	2020-04-16	13:42:45	1	1	1	USRTblock	1	USRT	46	600000	#ff0000	10pct	1	50pct	50pct	6000	218112	224132	217765	57	224468	336	0	0	44
6.1.1	win	2020-04-16	13:42:45	1	1	1	USRTblock	1	USRT	47	600000	#ff0000	10pct	1	50pct	50pct	6000	224472	230481	224132	57	231000	519	0	0	45
6.1.1	win	2020-04-16	13:42:45	1	1	1	USRTblock	1	USRT	48	600000	#ff0000	10pct	1	50pct	50pct	3000	231004	234013	230481	57	234307	294	0	0	46
6.1.1	win	2020-04-16	13:42:45	1	1	1	USRTblock	1	USRT	49	600000	#ff0000	10pct	1	50pct	50pct	6000	234311	240330	234013	57	240682	352	0	0	47
6.1.1	win	2020-04-16	13:42:45	1	1	1	USRTblock	1	USRT	50	600000	#ff0000	10pct	1	50pct	50pct	3000	240686	243695	240330	57	243942	247	0	0	48
6.1.1	win	2020-04-16	13:42:45	1	1	1	USRTblock	1	USRT	51	600000	#ff0000	10pct	1	50pct	50pct	7000	243945	250962	243695	57	251197	235	0	0	49
6.1.1	win	2020-04-16	13:42:45	1	1	1	USRTblock	1	USRT	52	600000	#ff0000	10pct	1	50pct	50pct	5000	251201	256212	250962	57	256492	280	0	0	50
6.1.1	win	2020-04-16	13:42:45	1	1	1	USRTblock	1	USRT	53	600000	#ff0000	10pct	1	50pct	50pct	4000	256496	260511	256212	57	260818	307	0	0	51
6.1.1	win	2020-04-16	13:42:45	1	1	1	USRTblock	1	USRT	54	600000	#ff0000	10pct	1	50pct	50pct	5000	260822	265827	260511	57	266076	249	0	0	52
6.1.1	win	2020-04-16	13:42:45	1	1	1	USRTblock	1	USRT	55	600000	#ff0000	10pct	1	50pct	50pct	2000	266080	268093	265827	57	268464	371	0	0	53
6.1.1	win	2020-04-16	13:42:45	1	1	1	USRTblock	1	USRT	56	600000	#ff0000	10pct	1	50pct	50pct	2000	268467	270477	268093	57	270748	271	0	0	54
6.1.1	win	2020-04-16	13:42:45	1	1	1	USRTblock	1	USRT	57	600000	#ff0000	10pct	1	50pct	50pct	4000	270753	274759	270477	57	275025	266	0	0	55
6.1.1	win	2020-04-16	13:42:45	1	1	1	USRTblock	1	USRT	58	600000	#ff0000	10pct	1	50pct	50pct	6000	275028	-1	274759	57	277007	0	1	1	56
6.1.1	win	2020-04-16	13:42:45	1	1	1	USRTblock	1	USRT	59	600000	#ff0000	10pct	1	50pct	50pct	2000	277011	279025	-1	57	279287	262	0	1	57
6.1.1	win	2020-04-16	13:42:45	1	1	1	USRTblock	1	USRT	60	600000	#ff0000	10pct	1	50pct	50pct	8000	279291	287309	279025	57	287574	265	0	1	58
6.1.1	win	2020-04-16	13:42:45	1	1	1	USRTblock	1	USRT	61	600000	#ff0000	10pct	1	50pct	50pct	4000	287577	291591	287309	57	291913	322	0	1	59
6.1.1	win	2020-04-16	13:42:45	1	1	1	USRTblock	1	USRT	62	600000	#ff0000	10pct	1	50pct	50pct	8000	291916	299924	291591	57	300254	330	0	1	60
6.1.1	win	2020-04-16	13:42:45	1	1	1	USRTblock	1	USRT	63	600000	#ff0000	10pct	1	50pct	50pct	5000	300258	305273	299924	57	305609	336	0	1	61
6.1.1	win	2020-04-16	13:42:45	1	1	1	USRTblock	1	USRT	64	600000	#ff0000	10pct	1	50pct	50pct	8000	305613	313623	305273	57	313892	269	0	1	62
6.1.1	win	2020-04-16	13:42:45	1	1	1	USRTblock	1	USRT	65	600000	#ff0000	10pct	1	50pct	50pct	7000	313895	320905	313623	57	321249	344	0	1	63
6.1.1	win	2020-04-16	13:42:45	1	1	1	USRTblock	1	USRT	66	600000	#ff0000	10pct	1	50pct	50pct	4000	321252	325271	320905	57	325646	375	0	1	64
6.1.1	win	2020-04-16	13:42:45	1	1	1	USRTblock	1	USRT	67	600000	#ff0000	10pct	1	50pct	50pct	3000	325650	328671	325271	57	329045	374	0	1	65
6.1.1	win	2020-04-16	13:42:45	1	1	1	USRTblock	1	USRT	68	600000	#ff0000	10pct	1	50pct	50pct	8000	329050	337070	328671	57	337387	317	0	1	66
6.1.1	win	2020-04-16	13:42:45	1	1	1	USRTblock	1	USRT	69	600000	#ff0000	10pct	1	50pct	50pct	6000	337391	343402	337070	57	343729	327	0	1	67
6.1.1	win	2020-04-16	13:42:45	1	1	1	USRTblock	1	USRT	70	600000	#ff0000	10pct	1	50pct	50pct	6000	343733	349751	343402	57	350053	302	0	1	68
6.1.1	win	2020-04-16	13:42:45	1	1	1	USRTblock	1	USRT	71	600000	#ff0000	10pct	1	50pct	50pct	4000	350057	354068	349751	57	354353	285	0	1	69
6.1.1	win	2020-04-16	13:42:45	1	1	1	USRTblock	1	USRT	72	600000	#ff0000	10pct	1	50pct	50pct	5000	354357	359367	354068	57	360010	643	0	1	70
6.1.1	win	2020-04-16	13:42:45	1	1	1	USRTblock	1	USRT	73	600000	#ff0000	10pct	1	50pct	50pct	4000	360013	364033	359367	57	364368	335	0	1	71
6.1.1	win	2020-04-16	13:42:45	1	1	1	USRTblock	1	USRT	74	600000	#ff0000	10pct	1	50pct	50pct	2000	364371	366383	364033	57	366801	418	0	1	72
6.1.1	win	2020-04-16	13:42:45	1	1	1	USRTblock	1	USRT	75	600000	#ff0000	10pct	1	50pct	50pct	8000	366805	374816	366383	57	375143	327	0	1	73
6.1.1	win	2020-04-16	13:42:45	1	1	1	USRTblock	1	USRT	76	600000	#ff0000	10pct	1	50pct	50pct	7000	375147	382165	374816	57	382449	284	0	1	74
6.1.1	win	2020-04-16	13:42:45	1	1	1	USRTblock	1	USRT	77	600000	#ff0000	10pct	1	50pct	50pct	3000	382454	385464	382165	57	385741	277	0	1	75
6.1.1	win	2020-04-16	13:42:45	1	1	1	USRTblock	1	USRT	78	600000	#ff0000	10pct	1	50pct	50pct	8000	385745	393764	385464	57	394000	236	0	1	76
6.1.1	win	2020-04-16	13:42:45	1	1	1	USRTblock	1	USRT	79	600000	#ff0000	10pct	1	50pct	50pct	8000	394003	402013	393764	57	402276	263	0	1	77
6.1.1	win	2020-04-16	13:42:45	1	1	1	USRTblock	1	USRT	80	600000	#ff0000	10pct	1	50pct	50pct	8000	402279	410295	402013	57	410585	290	0	1	78
6.1.1	win	2020-04-16	13:42:45	1	1	1	USRTblock	1	USRT	81	600000	#ff0000	10pct	1	50pct	50pct	2000	410589	412595	410295	57	412947	352	0	1	79
6.1.1	win	2020-04-16	13:42:45	1	1	1	USRTblock	1	USRT	82	600000	#ff0000	10pct	1	50pct	50pct	2000	412951	414962	412595	57	415317	355	0	1	80
6.1.1	win	2020-04-16	13:42:45	1	1	1	USRTblock	1	USRT	83	600000	#ff0000	10pct	1	50pct	50pct	6000	415320	421328	414962	57	421736	408	0	1	81
6.1.1	win	2020-04-16	13:42:45	1	1	1	USRTblock	1	USRT	84	600000	#ff0000	10pct	1	50pct	50pct	6000	421740	427761	421328	57	428089	328	0	1	82
6.1.1	win	2020-04-16	13:42:45	1	1	1	USRTblock	1	USRT	85	600000	#ff0000	10pct	1	50pct	50pct	8000	428093	436110	427761	57	436406	296	0	1	83
6.1.1	win	2020-04-16	13:42:45	1	1	1	USRTblock	1	USRT	86	600000	#ff0000	10pct	1	50pct	50pct	6000	436410	-1	436110	57	441045	0	1	2	84
6.1.1	win	2020-04-16	13:42:45	1	1	1	USRTblock	1	USRT	87	600000	#ff0000	10pct	1	50pct	50pct	8000	441050	449059	-1	57	449327	268	0	2	85
6.1.1	win	2020-04-16	13:42:45	1	1	1	USRTblock	1	USRT	88	600000	#ff0000	10pct	1	50pct	50pct	5000	449331	454342	449059	57	454642	300	0	2	86
6.1.1	win	2020-04-16	13:42:45	1	1	1	USRTblock	1	USRT	89	600000	#ff0000	10pct	1	50pct	50pct	4000	454645	458658	454342	57	458942	284	0	2	87
6.1.1	win	2020-04-16	13:42:45	1	1	1	USRTblock	1	USRT	90	600000	#ff0000	10pct	1	50pct	50pct	4000	458945	462957	458658	57	463255	298	0	2	88
6.1.1	win	2020-04-16	13:42:45	1	1	1	USRTblock	1	USRT	91	600000	#ff0000	10pct	1	50pct	50pct	8000	463258	471273	462957	57	471577	304	0	2	89
6.1.1	win	2020-04-16	13:42:45	1	1	1	USRTblock	1	USRT	92	600000	#ff0000	10pct	1	50pct	50pct	5000	471581	476590	471273	57	476887	297	0	2	90
6.1.1	win	2020-04-16	13:42:45	1	1	1	USRTblock	1	USRT	93	600000	#ff0000	10pct	1	50pct	50pct	2000	476891	478905	476590	57	479243	338	0	2	91
6.1.1	win	2020-04-16	13:42:45	1	1	1	USRTblock	1	USRT	94	600000	#ff0000	10pct	1	50pct	50pct	5000	479246	484255	478905	57	484563	308	0	2	92
6.1.1	win	2020-04-16	13:42:45	1	1	1	USRTblock	1	USRT	95	600000	#ff0000	10pct	1	50pct	50pct	4000	484567	488588	484255	57	488942	354	0	2	93
6.1.1	win	2020-04-16	13:42:45	1	1	1	USRTblock	1	USRT	96	600000	#ff0000	10pct	1	50pct	50pct	5000	488946	493954	488588	57	494236	282	0	2	94
6.1.1	win	2020-04-16	13:42:45	1	1	1	USRTblock	1	USRT	97	600000	#ff0000	10pct	1	50pct	50pct	6000	494241	500253	493954	57	500545	292	0	2	95
6.1.1	win	2020-04-16	13:42:45	1	1	1	USRTblock	1	USRT	98	600000	#ff0000	10pct	1	50pct	50pct	6000	500549	506569	500253	57	506865	296	0	2	96
6.1.1	win	2020-04-16	13:42:45	1	1	1	USRTblock	1	USRT	99	600000	#ff0000	10pct	1	50pct	50pct	6000	506869	512885	506569	57	513131	246	0	2	97
6.1.1	win	2020-04-16	13:42:45	1	1	1	USRTblock	1	USRT	100	600000	#ff0000	10pct	1	50pct	50pct	2000	513134	515151	512885	57	515461	310	0	2	98
6.1.1	win	2020-04-16	13:42:45	1	1	1	USRTblock	1	USRT	101	600000	#ff0000	10pct	1	50pct	50pct	8000	515466	523485	515151	57	523757	272	0	2	99
6.1.1	win	2020-04-16	13:42:45	1	1	1	USRTblock	1	USRT	102	600000	#ff0000	10pct	1	50pct	50pct	2000	523760	525767	523485	57	526123	356	0	2	100
6.1.1	win	2020-04-16	13:42:45	1	1	1	USRTblock	1	USRT	103	600000	#ff0000	10pct	1	50pct	50pct	2000	526127	528134	525767	57	528425	291	0	2	101
6.1.1	win	2020-04-16	13:42:45	1	1	1	USRTblock	1	USRT	104	600000	#ff0000	10pct	1	50pct	50pct	7000	528428	535450	528134	57	535723	273	0	2	102
6.1.1	win	2020-04-16	13:42:45	1	1	1	USRTblock	1	USRT	105	600000	#ff0000	10pct	1	50pct	50pct	5000	535727	540732	535450	57	541007	275	0	2	103
6.1.1	win	2020-04-16	13:42:45	1	1	1	USRTblock	1	USRT	106	600000	#ff0000	10pct	1	50pct	50pct	2000	541011	543033	540732	57	543324	291	0	2	104
6.1.1	win	2020-04-16	13:42:45	1	1	1	USRTblock	1	USRT	107	600000	#ff0000	10pct	1	50pct	50pct	3000	543328	546349	543033	57	546622	273	0	2	105
6.1.1	win	2020-04-16	13:42:45	1	1	1	USRTblock	1	USRT	108	600000	#ff0000	10pct	1	50pct	50pct	5000	546626	551631	546349	57	551903	272	0	2	106
6.1.1	win	2020-04-16	13:42:45	1	1	1	USRTblock	1	USRT	109	600000	#ff0000	10pct	1	50pct	50pct	3000	551906	554929	551631	57	555239	310	0	2	107
6.1.1	win	2020-04-16	13:42:45	1	1	1	USRTblock	1	USRT	110	600000	#ff0000	10pct	1	50pct	50pct	4000	555243	559247	554929	57	559620	373	0	2	108
6.1.1	win	2020-04-16	13:42:45	1	1	1	USRTblock	1	USRT	111	600000	#ff0000	10pct	1	50pct	50pct	2000	559623	561631	559247	57	562193	562	0	2	109
6.1.1	win	2020-04-16	13:42:45	1	1	1	USRTblock	1	USRT	112	600000	#ff0000	10pct	1	50pct	50pct	4000	562196	566213	561631	57	566506	293	0	2	110
6.1.1	win	2020-04-16	13:42:45	1	1	1	USRTblock	1	USRT	113	600000	#ff0000	10pct	1	50pct	50pct	4000	566510	570529	566213	57	570795	266	0	2	111
6.1.1	win	2020-04-16	13:42:45	1	1	1	USRTblock	1	USRT	114	600000	#ff0000	10pct	1	50pct	50pct	3000	570798	573812	570529	57	574094	282	0	2	112
6.1.1	win	2020-04-16	13:42:45	1	1	1	USRTblock	1	USRT	115	600000	#ff0000	10pct	1	50pct	50pct	4000	574098	578112	573812	57	578438	326	0	2	113
6.1.1	win	2020-04-16	13:42:45	1	1	1	USRTblock	1	USRT	116	600000	#ff0000	10pct	1	50pct	50pct	2000	578441	580462	578112	57	580823	361	0	2	114
6.1.1	win	2020-04-16	13:42:45	1	1	1	USRTblock	1	USRT	117	600000	#ff0000	10pct	1	50pct	50pct	7000	580827	587845	580462	57	588133	288	0	2	115
6.1.1	win	2020-04-16	13:42:45	1	1	1	USRTblock	1	USRT	118	600000	#ff0000	10pct	1	50pct	50pct	8000	588136	596144	587845	57	596384	240	0	2	116
6.1.1	win	2020-04-16	13:42:45	1	1	1	USRTblock	1	USRT	119	600000	#ff0000	10pct	1	50pct	50pct	5000	596388	-1	596144	0	596514	0	1	3	117
