build	computer.platform	date	time	subject	group	sessionid	blockcode	blocknum	trialcode	trialnum	testduration	targetcolor	targetsize	fixed	targetx	targety	stiminterval	trialStart	shape.targetcircle.timestamp	lastCircleTimestamp	response	rt_elapsed	rt	EarlyResponse	countEarlyResponses	countResponses
6.1.1	win	2020-04-16	22:48:49	1	1	1	USRTblock	1	USRT	3	600000	#ff0000	10pct	1	50pct	50pct	2000	5578	7593	4840	57	7854	261	0	0	1
6.1.1	win	2020-04-16	22:48:49	1	1	1	USRTblock	1	USRT	4	600000	#ff0000	10pct	1	50pct	50pct	7000	7866	14877	7593	57	15159	282	0	0	2
6.1.1	win	2020-04-16	22:48:49	1	1	1	USRTblock	1	USRT	5	600000	#ff0000	10pct	1	50pct	50pct	3000	15163	18175	14877	57	18479	304	0	0	3
6.1.1	win	2020-04-16	22:48:49	1	1	1	USRTblock	1	USRT	6	600000	#ff0000	10pct	1	50pct	50pct	6000	18483	24492	18175	57	24746	254	0	0	4
6.1.1	win	2020-04-16	22:48:49	1	1	1	USRTblock	1	USRT	7	600000	#ff0000	10pct	1	50pct	50pct	7000	24751	31758	24492	57	32016	258	0	0	5
6.1.1	win	2020-04-16	22:48:49	1	1	1	USRTblock	1	USRT	8	600000	#ff0000	10pct	1	50pct	50pct	5000	32019	37040	31758	57	37305	265	0	0	6
6.1.1	win	2020-04-16	22:48:49	1	1	1	USRTblock	1	USRT	9	600000	#ff0000	10pct	1	50pct	50pct	4000	37309	41323	37040	57	41622	299	0	0	7
6.1.1	win	2020-04-16	22:48:49	1	1	1	USRTblock	1	USRT	10	600000	#ff0000	10pct	1	50pct	50pct	2000	41625	43639	41323	57	43950	311	0	0	8
6.1.1	win	2020-04-16	22:48:49	1	1	1	USRTblock	1	USRT	11	600000	#ff0000	10pct	1	50pct	50pct	5000	43956	48972	43639	57	49222	250	0	0	9
6.1.1	win	2020-04-16	22:48:49	1	1	1	USRTblock	1	USRT	12	600000	#ff0000	10pct	1	50pct	50pct	4000	49225	53238	48972	57	53497	259	0	0	10
6.1.1	win	2020-04-16	22:48:49	1	1	1	USRTblock	1	USRT	13	600000	#ff0000	10pct	1	50pct	50pct	8000	53502	61521	53238	57	61836	315	0	0	11
6.1.1	win	2020-04-16	22:48:49	1	1	1	USRTblock	1	USRT	14	600000	#ff0000	10pct	1	50pct	50pct	5000	61840	66854	61521	57	67129	275	0	0	12
6.1.1	win	2020-04-16	22:48:49	1	1	1	USRTblock	1	USRT	15	600000	#ff0000	10pct	1	50pct	50pct	4000	67132	71137	66854	57	71451	314	0	0	13
6.1.1	win	2020-04-16	22:48:49	1	1	1	USRTblock	1	USRT	16	600000	#ff0000	10pct	1	50pct	50pct	3000	71454	74470	71137	57	74817	347	0	0	14
6.1.1	win	2020-04-16	22:48:49	1	1	1	USRTblock	1	USRT	17	600000	#ff0000	10pct	1	50pct	50pct	7000	74820	81836	74470	57	82132	296	0	0	15
6.1.1	win	2020-04-16	22:48:49	1	1	1	USRTblock	1	USRT	18	600000	#ff0000	10pct	1	50pct	50pct	7000	82135	89152	81836	57	89436	284	0	0	16
6.1.1	win	2020-04-16	22:48:49	1	1	1	USRTblock	1	USRT	19	600000	#ff0000	10pct	1	50pct	50pct	5000	89439	94451	89152	57	94749	298	0	0	17
6.1.1	win	2020-04-16	22:48:49	1	1	1	USRTblock	1	USRT	20	600000	#ff0000	10pct	1	50pct	50pct	3000	94753	97767	94451	57	98051	284	0	0	18
6.1.1	win	2020-04-16	22:48:49	1	1	1	USRTblock	1	USRT	21	600000	#ff0000	10pct	1	50pct	50pct	2000	98055	100067	97767	57	100490	423	0	0	19
6.1.1	win	2020-04-16	22:48:49	1	1	1	USRTblock	1	USRT	22	600000	#ff0000	10pct	1	50pct	50pct	4000	100493	104500	100067	57	104775	275	0	0	20
6.1.1	win	2020-04-16	22:48:49	1	1	1	USRTblock	1	USRT	23	600000	#ff0000	10pct	1	50pct	50pct	7000	104779	111800	104500	57	112090	290	0	0	21
6.1.1	win	2020-04-16	22:48:49	1	1	1	USRTblock	1	USRT	24	600000	#ff0000	10pct	1	50pct	50pct	3000	112093	115099	111800	57	115590	491	0	0	22
6.1.1	win	2020-04-16	22:48:49	1	1	1	USRTblock	1	USRT	25	600000	#ff0000	10pct	1	50pct	50pct	3000	115594	118599	115099	57	118861	262	0	0	23
6.1.1	win	2020-04-16	22:48:49	1	1	1	USRTblock	1	USRT	26	600000	#ff0000	10pct	1	50pct	50pct	6000	118864	124881	118599	57	125134	253	0	0	24
6.1.1	win	2020-04-16	22:48:49	1	1	1	USRTblock	1	USRT	27	600000	#ff0000	10pct	1	50pct	50pct	5000	125137	130148	124881	57	130445	297	0	0	25
6.1.1	win	2020-04-16	22:48:49	1	1	1	USRTblock	1	USRT	28	600000	#ff0000	10pct	1	50pct	50pct	8000	130449	138464	130148	57	138745	281	0	0	26
6.1.1	win	2020-04-16	22:48:49	1	1	1	USRTblock	1	USRT	29	600000	#ff0000	10pct	1	50pct	50pct	5000	138749	143763	138464	57	144041	278	0	0	27
6.1.1	win	2020-04-16	22:48:49	1	1	1	USRTblock	1	USRT	30	600000	#ff0000	10pct	1	50pct	50pct	8000	144045	152062	143763	57	152370	308	0	0	28
6.1.1	win	2020-04-16	22:48:49	1	1	1	USRTblock	1	USRT	31	600000	#ff0000	10pct	1	50pct	50pct	2000	152373	154378	152062	57	154786	408	0	0	29
6.1.1	win	2020-04-16	22:48:49	1	1	1	USRTblock	1	USRT	32	600000	#ff0000	10pct	1	50pct	50pct	2000	154790	156795	154378	57	157191	396	0	0	30
6.1.1	win	2020-04-16	22:48:49	1	1	1	USRTblock	1	USRT	33	600000	#ff0000	10pct	1	50pct	50pct	3000	157194	160212	156795	57	160509	297	0	0	31
6.1.1	win	2020-04-16	22:48:49	1	1	1	USRTblock	1	USRT	34	600000	#ff0000	10pct	1	50pct	50pct	7000	160513	167528	160212	57	167767	239	0	0	32
6.1.1	win	2020-04-16	22:48:49	1	1	1	USRTblock	1	USRT	35	600000	#ff0000	10pct	1	50pct	50pct	5000	167772	172793	167528	57	173119	326	0	0	33
6.1.1	win	2020-04-16	22:48:49	1	1	1	USRTblock	1	USRT	36	600000	#ff0000	10pct	1	50pct	50pct	4000	173122	177142	172793	57	177430	288	0	0	34
6.1.1	win	2020-04-16	22:48:49	1	1	1	USRTblock	1	USRT	37	600000	#ff0000	10pct	1	50pct	50pct	7000	177434	184442	177142	57	184696	254	0	0	35
6.1.1	win	2020-04-16	22:48:49	1	1	1	USRTblock	1	USRT	38	600000	#ff0000	10pct	1	50pct	50pct	4000	184700	188708	184442	57	188975	267	0	0	36
6.1.1	win	2020-04-16	22:48:49	1	1	1	USRTblock	1	USRT	39	600000	#ff0000	10pct	1	50pct	50pct	4000	188978	192991	188708	57	193310	319	0	0	37
6.1.1	win	2020-04-16	22:48:49	1	1	1	USRTblock	1	USRT	40	600000	#ff0000	10pct	1	50pct	50pct	2000	193314	195324	192991	57	195652	328	0	0	38
6.1.1	win	2020-04-16	22:48:49	1	1	1	USRTblock	1	USRT	41	600000	#ff0000	10pct	1	50pct	50pct	8000	195655	203675	195324	57	203976	301	0	0	39
6.1.1	win	2020-04-16	22:48:49	1	1	1	USRTblock	1	USRT	42	600000	#ff0000	10pct	1	50pct	50pct	5000	203979	208990	203675	57	209428	438	0	0	40
6.1.1	win	2020-04-16	22:48:49	1	1	1	USRTblock	1	USRT	43	600000	#ff0000	10pct	1	50pct	50pct	3000	209432	212439	208990	57	212802	363	0	0	41
6.1.1	win	2020-04-16	22:48:49	1	1	1	USRTblock	1	USRT	44	600000	#ff0000	10pct	1	50pct	50pct	6000	212806	218823	212439	57	219067	244	0	0	42
6.1.1	win	2020-04-16	22:48:49	1	1	1	USRTblock	1	USRT	45	600000	#ff0000	10pct	1	50pct	50pct	6000	219071	225088	218823	57	225375	287	0	0	43
6.1.1	win	2020-04-16	22:48:49	1	1	1	USRTblock	1	USRT	46	600000	#ff0000	10pct	1	50pct	50pct	7000	225378	232388	225088	57	232676	288	0	0	44
6.1.1	win	2020-04-16	22:48:49	1	1	1	USRTblock	1	USRT	47	600000	#ff0000	10pct	1	50pct	50pct	2000	232679	234687	232388	57	235036	349	0	0	45
6.1.1	win	2020-04-16	22:48:49	1	1	1	USRTblock	1	USRT	48	600000	#ff0000	10pct	1	50pct	50pct	7000	235039	242053	234687	57	242335	282	0	0	46
6.1.1	win	2020-04-16	22:48:49	1	1	1	USRTblock	1	USRT	49	600000	#ff0000	10pct	1	50pct	50pct	6000	242338	248352	242053	57	248565	213	0	0	47
6.1.1	win	2020-04-16	22:48:49	1	1	1	USRTblock	1	USRT	50	600000	#ff0000	10pct	1	50pct	50pct	4000	248569	252585	248352	57	252870	285	0	0	48
6.1.1	win	2020-04-16	22:48:49	1	1	1	USRTblock	1	USRT	51	600000	#ff0000	10pct	1	50pct	50pct	3000	252874	255885	252585	57	256211	326	0	0	49
6.1.1	win	2020-04-16	22:48:49	1	1	1	USRTblock	1	USRT	52	600000	#ff0000	10pct	1	50pct	50pct	2000	256215	258234	255885	57	258511	277	0	0	50
6.1.1	win	2020-04-16	22:48:49	1	1	1	USRTblock	1	USRT	53	600000	#ff0000	10pct	1	50pct	50pct	8000	258514	266534	258234	57	266806	272	0	0	51
6.1.1	win	2020-04-16	22:48:49	1	1	1	USRTblock	1	USRT	54	600000	#ff0000	10pct	1	50pct	50pct	6000	266810	272817	266534	57	273087	270	0	0	52
6.1.1	win	2020-04-16	22:48:49	1	1	1	USRTblock	1	USRT	55	600000	#ff0000	10pct	1	50pct	50pct	8000	273090	281099	272817	57	281337	238	0	0	53
6.1.1	win	2020-04-16	22:48:49	1	1	1	USRTblock	1	USRT	56	600000	#ff0000	10pct	1	50pct	50pct	8000	281340	289349	281099	57	289642	293	0	0	54
6.1.1	win	2020-04-16	22:48:49	1	1	1	USRTblock	1	USRT	57	600000	#ff0000	10pct	1	50pct	50pct	2000	289645	291664	289349	57	292094	430	0	0	55
6.1.1	win	2020-04-16	22:48:49	1	1	1	USRTblock	1	USRT	58	600000	#ff0000	10pct	1	50pct	50pct	3000	292098	295114	291664	57	295390	276	0	0	56
6.1.1	win	2020-04-16	22:48:49	1	1	1	USRTblock	1	USRT	59	600000	#ff0000	10pct	1	50pct	50pct	5000	295394	300414	295114	57	300743	329	0	0	57
6.1.1	win	2020-04-16	22:48:49	1	1	1	USRTblock	1	USRT	60	600000	#ff0000	10pct	1	50pct	50pct	6000	300747	306764	300414	57	307066	302	0	0	58
6.1.1	win	2020-04-16	22:48:49	1	1	1	USRTblock	1	USRT	61	600000	#ff0000	10pct	1	50pct	50pct	7000	307070	314079	306764	57	314375	296	0	0	59
6.1.1	win	2020-04-16	22:48:49	1	1	1	USRTblock	1	USRT	62	600000	#ff0000	10pct	1	50pct	50pct	2000	314379	316396	314079	57	316742	346	0	0	60
6.1.1	win	2020-04-16	22:48:49	1	1	1	USRTblock	1	USRT	63	600000	#ff0000	10pct	1	50pct	50pct	3000	316745	319762	316396	57	320019	257	0	0	61
6.1.1	win	2020-04-16	22:48:49	1	1	1	USRTblock	1	USRT	64	600000	#ff0000	10pct	1	50pct	50pct	4000	320023	324028	319762	57	324324	296	0	0	62
6.1.1	win	2020-04-16	22:48:49	1	1	1	USRTblock	1	USRT	65	600000	#ff0000	10pct	1	50pct	50pct	6000	324327	330344	324028	57	330655	311	0	0	63
6.1.1	win	2020-04-16	22:48:49	1	1	1	USRTblock	1	USRT	66	600000	#ff0000	10pct	1	50pct	50pct	2000	330658	332677	330344	57	333055	378	0	0	64
6.1.1	win	2020-04-16	22:48:49	1	1	1	USRTblock	1	USRT	67	600000	#ff0000	10pct	1	50pct	50pct	4000	333058	337077	332677	57	337350	273	0	0	65
6.1.1	win	2020-04-16	22:48:49	1	1	1	USRTblock	1	USRT	68	600000	#ff0000	10pct	1	50pct	50pct	3000	337353	340359	337077	57	340660	301	0	0	66
6.1.1	win	2020-04-16	22:48:49	1	1	1	USRTblock	1	USRT	69	600000	#ff0000	10pct	1	50pct	50pct	8000	340684	348693	340359	57	348951	258	0	0	67
6.1.1	win	2020-04-16	22:48:49	1	1	1	USRTblock	1	USRT	70	600000	#ff0000	10pct	1	50pct	50pct	5000	348955	353975	348693	57	354306	331	0	0	68
6.1.1	win	2020-04-16	22:48:49	1	1	1	USRTblock	1	USRT	71	600000	#ff0000	10pct	1	50pct	50pct	2000	354309	356325	353975	57	356674	349	0	0	69
6.1.1	win	2020-04-16	22:48:49	1	1	1	USRTblock	1	USRT	72	600000	#ff0000	10pct	1	50pct	50pct	5000	356678	361691	356325	57	362010	319	0	0	70
6.1.1	win	2020-04-16	22:48:49	1	1	1	USRTblock	1	USRT	73	600000	#ff0000	10pct	1	50pct	50pct	8000	362014	370024	361691	57	370344	320	0	0	71
6.1.1	win	2020-04-16	22:48:49	1	1	1	USRTblock	1	USRT	74	600000	#ff0000	10pct	1	50pct	50pct	4000	370348	374356	370024	57	374694	338	0	0	72
6.1.1	win	2020-04-16	22:48:49	1	1	1	USRTblock	1	USRT	75	600000	#ff0000	10pct	1	50pct	50pct	4000	374698	378706	374356	57	379037	331	0	0	73
6.1.1	win	2020-04-16	22:48:49	1	1	1	USRTblock	1	USRT	76	600000	#ff0000	10pct	1	50pct	50pct	5000	379041	384056	378706	57	384345	289	0	0	74
6.1.1	win	2020-04-16	22:48:49	1	1	1	USRTblock	1	USRT	77	600000	#ff0000	10pct	1	50pct	50pct	2000	384348	386355	384056	57	386697	342	0	0	75
6.1.1	win	2020-04-16	22:48:49	1	1	1	USRTblock	1	USRT	78	600000	#ff0000	10pct	1	50pct	50pct	2000	386701	388721	386355	57	389137	416	0	0	76
6.1.1	win	2020-04-16	22:48:49	1	1	1	USRTblock	1	USRT	79	600000	#ff0000	10pct	1	50pct	50pct	4000	389141	393155	388721	57	393454	299	0	0	77
6.1.1	win	2020-04-16	22:48:49	1	1	1	USRTblock	1	USRT	80	600000	#ff0000	10pct	1	50pct	50pct	8000	393458	401471	393155	57	401704	233	0	0	78
6.1.1	win	2020-04-16	22:48:49	1	1	1	USRTblock	1	USRT	81	600000	#ff0000	10pct	1	50pct	50pct	4000	401707	405720	401471	57	406110	390	0	0	79
6.1.1	win	2020-04-16	22:48:49	1	1	1	USRTblock	1	USRT	82	600000	#ff0000	10pct	1	50pct	50pct	8000	406113	414120	405720	57	414379	259	0	0	80
6.1.1	win	2020-04-16	22:48:49	1	1	1	USRTblock	1	USRT	83	600000	#ff0000	10pct	1	50pct	50pct	8000	414383	422402	414120	57	422783	381	0	0	81
6.1.1	win	2020-04-16	22:48:49	1	1	1	USRTblock	1	USRT	84	600000	#ff0000	10pct	1	50pct	50pct	8000	422786	430802	422402	57	431080	278	0	0	82
6.1.1	win	2020-04-16	22:48:49	1	1	1	USRTblock	1	USRT	85	600000	#ff0000	10pct	1	50pct	50pct	4000	431083	435101	430802	57	435469	368	0	0	83
6.1.1	win	2020-04-16	22:48:49	1	1	1	USRTblock	1	USRT	86	600000	#ff0000	10pct	1	50pct	50pct	4000	435473	439483	435101	57	439846	363	0	0	84
6.1.1	win	2020-04-16	22:48:49	1	1	1	USRTblock	1	USRT	87	600000	#ff0000	10pct	1	50pct	50pct	6000	439850	445867	439483	57	446178	311	0	0	85
6.1.1	win	2020-04-16	22:48:49	1	1	1	USRTblock	1	USRT	88	600000	#ff0000	10pct	1	50pct	50pct	7000	446183	453199	445867	57	453520	321	0	0	86
6.1.1	win	2020-04-16	22:48:49	1	1	1	USRTblock	1	USRT	89	600000	#ff0000	10pct	1	50pct	50pct	4000	453523	457531	453199	57	457796	265	0	0	87
6.1.1	win	2020-04-16	22:48:49	1	1	1	USRTblock	1	USRT	90	600000	#ff0000	10pct	1	50pct	50pct	4000	457800	461814	457531	57	462087	273	0	0	88
6.1.1	win	2020-04-16	22:48:49	1	1	1	USRTblock	1	USRT	91	600000	#ff0000	10pct	1	50pct	50pct	4000	462091	466097	461814	57	466325	228	0	0	89
6.1.1	win	2020-04-16	22:48:49	1	1	1	USRTblock	1	USRT	92	600000	#ff0000	10pct	1	50pct	50pct	2000	466328	468347	466097	57	468635	288	0	0	90
6.1.1	win	2020-04-16	22:48:49	1	1	1	USRTblock	1	USRT	93	600000	#ff0000	10pct	1	50pct	50pct	2000	468638	470646	468347	57	470933	287	0	0	91
6.1.1	win	2020-04-16	22:48:49	1	1	1	USRTblock	1	USRT	94	600000	#ff0000	10pct	1	50pct	50pct	5000	470937	475946	470646	57	476204	258	0	0	92
6.1.1	win	2020-04-16	22:48:49	1	1	1	USRTblock	1	USRT	95	600000	#ff0000	10pct	1	50pct	50pct	8000	476208	484229	475946	57	484567	338	0	0	93
6.1.1	win	2020-04-16	22:48:49	1	1	1	USRTblock	1	USRT	96	600000	#ff0000	10pct	1	50pct	50pct	7000	484570	491578	484229	57	491856	278	0	0	94
6.1.1	win	2020-04-16	22:48:49	1	1	1	USRTblock	1	USRT	97	600000	#ff0000	10pct	1	50pct	50pct	7000	491860	498877	491578	57	499159	282	0	0	95
6.1.1	win	2020-04-16	22:48:49	1	1	1	USRTblock	1	USRT	98	600000	#ff0000	10pct	1	50pct	50pct	4000	499163	503177	498877	57	503479	302	0	0	96
6.1.1	win	2020-04-16	22:48:49	1	1	1	USRTblock	1	USRT	99	600000	#ff0000	10pct	1	50pct	50pct	5000	503482	508493	503177	57	508817	324	0	0	97
6.1.1	win	2020-04-16	22:48:49	1	1	1	USRTblock	1	USRT	100	600000	#ff0000	10pct	1	50pct	50pct	5000	508820	513826	508493	57	514114	288	0	0	98
6.1.1	win	2020-04-16	22:48:49	1	1	1	USRTblock	1	USRT	101	600000	#ff0000	10pct	1	50pct	50pct	4000	514118	518126	513826	57	518623	497	0	0	99
6.1.1	win	2020-04-16	22:48:49	1	1	1	USRTblock	1	USRT	102	600000	#ff0000	10pct	1	50pct	50pct	3000	518626	521642	518126	57	521943	301	0	0	100
6.1.1	win	2020-04-16	22:48:49	1	1	1	USRTblock	1	USRT	103	600000	#ff0000	10pct	1	50pct	50pct	4000	521947	525958	521642	57	526256	298	0	0	101
6.1.1	win	2020-04-16	22:48:49	1	1	1	USRTblock	1	USRT	104	600000	#ff0000	10pct	1	50pct	50pct	2000	526259	528274	525958	57	528651	377	0	0	102
6.1.1	win	2020-04-16	22:48:49	1	1	1	USRTblock	1	USRT	105	600000	#ff0000	10pct	1	50pct	50pct	5000	528654	533674	528274	57	533972	298	0	0	103
6.1.1	win	2020-04-16	22:48:49	1	1	1	USRTblock	1	USRT	106	600000	#ff0000	10pct	1	50pct	50pct	7000	533975	540990	533674	57	541325	335	0	0	104
6.1.1	win	2020-04-16	22:48:49	1	1	1	USRTblock	1	USRT	107	600000	#ff0000	10pct	1	50pct	50pct	7000	541328	548339	540990	57	548624	285	0	0	105
6.1.1	win	2020-04-16	22:48:49	1	1	1	USRTblock	1	USRT	108	600000	#ff0000	10pct	1	50pct	50pct	6000	548627	554639	548339	57	554973	334	0	0	106
6.1.1	win	2020-04-16	22:48:49	1	1	1	USRTblock	1	USRT	109	600000	#ff0000	10pct	1	50pct	50pct	3000	554976	557988	554639	57	558347	359	0	0	107
6.1.1	win	2020-04-16	22:48:49	1	1	1	USRTblock	1	USRT	110	600000	#ff0000	10pct	1	50pct	50pct	3000	558350	561371	557988	57	561654	283	0	0	108
6.1.1	win	2020-04-16	22:48:49	1	1	1	USRTblock	1	USRT	111	600000	#ff0000	10pct	1	50pct	50pct	8000	561658	569670	561371	57	569970	300	0	0	109
6.1.1	win	2020-04-16	22:48:49	1	1	1	USRTblock	1	USRT	112	600000	#ff0000	10pct	1	50pct	50pct	3000	569974	572987	569670	57	573302	315	0	0	110
6.1.1	win	2020-04-16	22:48:49	1	1	1	USRTblock	1	USRT	113	600000	#ff0000	10pct	1	50pct	50pct	8000	573305	581320	572987	57	581592	272	0	0	111
6.1.1	win	2020-04-16	22:48:49	1	1	1	USRTblock	1	USRT	114	600000	#ff0000	10pct	1	50pct	50pct	6000	581596	587602	581320	57	588019	417	0	0	112
6.1.1	win	2020-04-16	22:48:49	1	1	1	USRTblock	1	USRT	115	600000	#ff0000	10pct	1	50pct	50pct	4000	588023	592035	587602	57	592538	503	0	0	113
6.1.1	win	2020-04-16	22:48:49	1	1	1	USRTblock	1	USRT	116	600000	#ff0000	10pct	1	50pct	50pct	3000	592541	595551	592035	57	595885	334	0	0	114
6.1.1	win	2020-04-16	22:48:49	1	1	1	USRTblock	1	USRT	117	600000	#ff0000	10pct	1	50pct	50pct	3000	595889	598900	595551	57	599211	311	0	0	115
6.1.1	win	2020-04-16	22:48:49	1	1	1	USRTblock	1	USRT	118	600000	#ff0000	10pct	1	50pct	50pct	4000	599215	603233	598900	57	603506	273	0	0	116
6.1.1	win	2020-04-16	22:48:49	1	1	1	USRTblock	1	USRT	119	600000	#ff0000	10pct	1	50pct	50pct	7000	603510	-1	603233	0	603634	0	1	1	117
