build	computer.platform	date	time	subject	group	sessionid	blockcode	blocknum	trialcode	trialnum	testduration	targetcolor	targetsize	fixed	targetx	targety	stiminterval	trialStart	shape.targetcircle.timestamp	lastCircleTimestamp	response	rt_elapsed	rt	EarlyResponse	countEarlyResponses	countResponses
6.1.1	win	2020-04-15	16:25:21	1	1	1	USRTblock	1	USRT	3	600000	#ff0000	10pct	1	50pct	50pct	5000	3168	8188	2434	57	8433	245	0	0	1
6.1.1	win	2020-04-15	16:25:21	1	1	1	USRTblock	1	USRT	4	600000	#ff0000	10pct	1	50pct	50pct	4000	8446	12453	8188	57	12710	257	0	0	2
6.1.1	win	2020-04-15	16:25:21	1	1	1	USRTblock	1	USRT	5	600000	#ff0000	10pct	1	50pct	50pct	8000	12713	20720	12453	57	20993	273	0	0	3
6.1.1	win	2020-04-15	16:25:21	1	1	1	USRTblock	1	USRT	6	600000	#ff0000	10pct	1	50pct	50pct	6000	20998	27019	20720	57	27277	258	0	0	4
6.1.1	win	2020-04-15	16:25:21	1	1	1	USRTblock	1	USRT	7	600000	#ff0000	10pct	1	50pct	50pct	4000	27281	31302	27019	57	31564	262	0	0	5
6.1.1	win	2020-04-15	16:25:21	1	1	1	USRTblock	1	USRT	8	600000	#ff0000	10pct	1	50pct	50pct	2000	31568	33585	31302	57	33886	301	0	0	6
6.1.1	win	2020-04-15	16:25:21	1	1	1	USRTblock	1	USRT	9	600000	#ff0000	10pct	1	50pct	50pct	7000	33890	40901	33585	57	41158	257	0	0	7
6.1.1	win	2020-04-15	16:25:21	1	1	1	USRTblock	1	USRT	10	600000	#ff0000	10pct	1	50pct	50pct	6000	41161	47167	40901	57	47464	297	0	0	8
6.1.1	win	2020-04-15	16:25:21	1	1	1	USRTblock	1	USRT	11	600000	#ff0000	10pct	1	50pct	50pct	3000	47468	50483	47167	57	50941	458	0	0	9
6.1.1	win	2020-04-15	16:25:21	1	1	1	USRTblock	1	USRT	12	600000	#ff0000	10pct	1	50pct	50pct	2000	50944	52949	50483	57	53424	475	0	0	10
6.1.1	win	2020-04-15	16:25:21	1	1	1	USRTblock	1	USRT	13	600000	#ff0000	10pct	1	50pct	50pct	7000	53428	60433	52949	57	60668	235	0	0	11
6.1.1	win	2020-04-15	16:25:21	1	1	1	USRTblock	1	USRT	14	600000	#ff0000	10pct	1	50pct	50pct	3000	60672	63682	60433	57	64009	327	0	0	12
6.1.1	win	2020-04-15	16:25:21	1	1	1	USRTblock	1	USRT	15	600000	#ff0000	10pct	1	50pct	50pct	5000	64013	69031	63682	57	69316	285	0	0	13
6.1.1	win	2020-04-15	16:25:21	1	1	1	USRTblock	1	USRT	16	600000	#ff0000	10pct	1	50pct	50pct	4000	69320	73330	69031	57	73618	288	0	0	14
6.1.1	win	2020-04-15	16:25:21	1	1	1	USRTblock	1	USRT	17	600000	#ff0000	10pct	1	50pct	50pct	2000	73622	75631	73330	57	76012	381	0	0	15
6.1.1	win	2020-04-15	16:25:21	1	1	1	USRTblock	1	USRT	18	600000	#ff0000	10pct	1	50pct	50pct	5000	76017	81030	75631	57	81306	276	0	0	16
6.1.1	win	2020-04-15	16:25:21	1	1	1	USRTblock	1	USRT	19	600000	#ff0000	10pct	1	50pct	50pct	3000	81310	84330	81030	57	84601	271	0	0	17
6.1.1	win	2020-04-15	16:25:21	1	1	1	USRTblock	1	USRT	20	600000	#ff0000	10pct	1	50pct	50pct	8000	84606	92613	84330	57	92881	268	0	0	18
6.1.1	win	2020-04-15	16:25:21	1	1	1	USRTblock	1	USRT	21	600000	#ff0000	10pct	1	50pct	50pct	3000	92885	95895	92613	57	96191	296	0	0	19
6.1.1	win	2020-04-15	16:25:21	1	1	1	USRTblock	1	USRT	22	600000	#ff0000	10pct	1	50pct	50pct	5000	96195	101211	95895	57	101481	270	0	0	20
6.1.1	win	2020-04-15	16:25:21	1	1	1	USRTblock	1	USRT	23	600000	#ff0000	10pct	1	50pct	50pct	8000	101485	109494	101211	57	109892	398	0	0	21
6.1.1	win	2020-04-15	16:25:21	1	1	1	USRTblock	1	USRT	24	600000	#ff0000	10pct	1	50pct	50pct	5000	109896	114910	109494	57	115204	294	0	0	22
6.1.1	win	2020-04-15	16:25:21	1	1	1	USRTblock	1	USRT	25	600000	#ff0000	10pct	1	50pct	50pct	5000	115208	120226	114910	57	120584	358	0	0	23
6.1.1	win	2020-04-15	16:25:21	1	1	1	USRTblock	1	USRT	26	600000	#ff0000	10pct	1	50pct	50pct	3000	120587	123592	120226	57	123943	351	0	0	24
6.1.1	win	2020-04-15	16:25:21	1	1	1	USRTblock	1	USRT	27	600000	#ff0000	10pct	1	50pct	50pct	4000	123947	127959	123592	57	128342	383	0	0	25
6.1.1	win	2020-04-15	16:25:21	1	1	1	USRTblock	1	USRT	28	600000	#ff0000	10pct	1	50pct	50pct	4000	128345	132359	127959	57	132637	278	0	0	26
6.1.1	win	2020-04-15	16:25:21	1	1	1	USRTblock	1	USRT	29	600000	#ff0000	10pct	1	50pct	50pct	8000	132640	140658	132359	57	140978	320	0	0	27
6.1.1	win	2020-04-15	16:25:21	1	1	1	USRTblock	1	USRT	30	600000	#ff0000	10pct	1	50pct	50pct	7000	140982	147990	140658	57	148266	276	0	0	28
6.1.1	win	2020-04-15	16:25:21	1	1	1	USRTblock	1	USRT	31	600000	#ff0000	10pct	1	50pct	50pct	5000	148270	153289	147990	57	153611	322	0	0	29
6.1.1	win	2020-04-15	16:25:21	1	1	1	USRTblock	1	USRT	32	600000	#ff0000	10pct	1	50pct	50pct	8000	153615	161622	153289	57	161990	368	0	0	30
6.1.1	win	2020-04-15	16:25:21	1	1	1	USRTblock	1	USRT	33	600000	#ff0000	10pct	1	50pct	50pct	3000	161993	165005	161622	57	165373	368	0	0	31
6.1.1	win	2020-04-15	16:25:21	1	1	1	USRTblock	1	USRT	34	600000	#ff0000	10pct	1	50pct	50pct	2000	165377	167388	165005	57	167718	330	0	0	32
6.1.1	win	2020-04-15	16:25:21	1	1	1	USRTblock	1	USRT	35	600000	#ff0000	10pct	1	50pct	50pct	3000	167721	170738	167388	57	171007	269	0	0	33
6.1.1	win	2020-04-15	16:25:21	1	1	1	USRTblock	1	USRT	36	600000	#ff0000	10pct	1	50pct	50pct	5000	171010	176020	170738	57	176292	272	0	0	34
6.1.1	win	2020-04-15	16:25:21	1	1	1	USRTblock	1	USRT	37	600000	#ff0000	10pct	1	50pct	50pct	2000	176295	178303	176020	57	178595	292	0	0	35
6.1.1	win	2020-04-15	16:25:21	1	1	1	USRTblock	1	USRT	38	600000	#ff0000	10pct	1	50pct	50pct	8000	178600	186620	178303	57	186907	287	0	0	36
6.1.1	win	2020-04-15	16:25:21	1	1	1	USRTblock	1	USRT	39	600000	#ff0000	10pct	1	50pct	50pct	7000	186911	193919	186620	57	194156	237	0	0	37
6.1.1	win	2020-04-15	16:25:21	1	1	1	USRTblock	1	USRT	40	600000	#ff0000	10pct	1	50pct	50pct	2000	194159	196168	193919	57	196485	317	0	0	38
6.1.1	win	2020-04-15	16:25:21	1	1	1	USRTblock	1	USRT	41	600000	#ff0000	10pct	1	50pct	50pct	2000	196489	198502	196168	57	198808	306	0	0	39
6.1.1	win	2020-04-15	16:25:21	1	1	1	USRTblock	1	USRT	42	600000	#ff0000	10pct	1	50pct	50pct	6000	198811	204818	198502	57	205129	311	0	0	40
6.1.1	win	2020-04-15	16:25:21	1	1	1	USRTblock	1	USRT	43	600000	#ff0000	10pct	1	50pct	50pct	8000	205133	213151	204818	57	213452	301	0	0	41
6.1.1	win	2020-04-15	16:25:21	1	1	1	USRTblock	1	USRT	44	600000	#ff0000	10pct	1	50pct	50pct	7000	213455	220467	213151	57	220940	473	0	0	42
6.1.1	win	2020-04-15	16:25:21	1	1	1	USRTblock	1	USRT	45	600000	#ff0000	10pct	1	50pct	50pct	4000	220944	224949	220467	57	225292	343	0	0	43
6.1.1	win	2020-04-15	16:25:21	1	1	1	USRTblock	1	USRT	46	600000	#ff0000	10pct	1	50pct	50pct	5000	225296	230315	224949	57	230723	408	0	0	44
6.1.1	win	2020-04-15	16:25:21	1	1	1	USRTblock	1	USRT	47	600000	#ff0000	10pct	1	50pct	50pct	4000	230726	234731	230315	57	235079	348	0	0	45
6.1.1	win	2020-04-15	16:25:21	1	1	1	USRTblock	1	USRT	48	600000	#ff0000	10pct	1	50pct	50pct	8000	235082	243098	234731	57	243385	287	0	0	46
6.1.1	win	2020-04-15	16:25:21	1	1	1	USRTblock	1	USRT	49	600000	#ff0000	10pct	1	50pct	50pct	6000	243388	249397	243098	57	249896	499	0	0	47
6.1.1	win	2020-04-15	16:25:21	1	1	1	USRTblock	1	USRT	50	600000	#ff0000	10pct	1	50pct	50pct	2000	249899	251913	249397	57	252311	398	0	0	48
6.1.1	win	2020-04-15	16:25:21	1	1	1	USRTblock	1	USRT	51	600000	#ff0000	10pct	1	50pct	50pct	5000	252314	257329	251913	57	257749	420	0	0	49
6.1.1	win	2020-04-15	16:25:21	1	1	1	USRTblock	1	USRT	52	600000	#ff0000	10pct	1	50pct	50pct	3000	257753	260762	257329	57	261122	360	0	0	50
6.1.1	win	2020-04-15	16:25:21	1	1	1	USRTblock	1	USRT	53	600000	#ff0000	10pct	1	50pct	50pct	6000	261126	267145	260762	57	267657	512	0	0	51
6.1.1	win	2020-04-15	16:25:21	1	1	1	USRTblock	1	USRT	54	600000	#ff0000	10pct	1	50pct	50pct	6000	267661	273677	267145	57	274132	455	0	0	52
6.1.1	win	2020-04-15	16:25:21	1	1	1	USRTblock	1	USRT	55	600000	#ff0000	10pct	1	50pct	50pct	4000	274136	278143	273677	57	278410	267	0	0	53
6.1.1	win	2020-04-15	16:25:21	1	1	1	USRTblock	1	USRT	56	600000	#ff0000	10pct	1	50pct	50pct	2000	278413	280426	278143	57	281053	627	0	0	54
6.1.1	win	2020-04-15	16:25:21	1	1	1	USRTblock	1	USRT	57	600000	#ff0000	10pct	1	50pct	50pct	3000	281056	284076	280426	57	284381	305	0	0	55
6.1.1	win	2020-04-15	16:25:21	1	1	1	USRTblock	1	USRT	58	600000	#ff0000	10pct	1	50pct	50pct	8000	284384	292392	284076	57	292669	277	0	0	56
6.1.1	win	2020-04-15	16:25:21	1	1	1	USRTblock	1	USRT	59	600000	#ff0000	10pct	1	50pct	50pct	2000	292672	294692	292392	57	294969	277	0	0	57
6.1.1	win	2020-04-15	16:25:21	1	1	1	USRTblock	1	USRT	60	600000	#ff0000	10pct	1	50pct	50pct	8000	294973	302992	294692	57	303400	408	0	0	58
6.1.1	win	2020-04-15	16:25:21	1	1	1	USRTblock	1	USRT	61	600000	#ff0000	10pct	1	50pct	50pct	2000	303404	305425	302992	57	305724	299	0	0	59
6.1.1	win	2020-04-15	16:25:21	1	1	1	USRTblock	1	USRT	62	600000	#ff0000	10pct	1	50pct	50pct	8000	305727	313740	305425	57	314013	273	0	0	60
6.1.1	win	2020-04-15	16:25:21	1	1	1	USRTblock	1	USRT	63	600000	#ff0000	10pct	1	50pct	50pct	6000	314016	320023	313740	57	320356	333	0	0	61
6.1.1	win	2020-04-15	16:25:21	1	1	1	USRTblock	1	USRT	64	600000	#ff0000	10pct	1	50pct	50pct	6000	320360	326372	320023	57	326700	328	0	0	62
6.1.1	win	2020-04-15	16:25:21	1	1	1	USRTblock	1	USRT	65	600000	#ff0000	10pct	1	50pct	50pct	2000	326703	328721	326372	57	329053	332	0	0	63
6.1.1	win	2020-04-15	16:25:21	1	1	1	USRTblock	1	USRT	66	600000	#ff0000	10pct	1	50pct	50pct	7000	329056	336071	328721	57	336433	362	0	0	64
6.1.1	win	2020-04-15	16:25:21	1	1	1	USRTblock	1	USRT	67	600000	#ff0000	10pct	1	50pct	50pct	2000	336436	338454	336071	57	338889	435	0	0	65
6.1.1	win	2020-04-15	16:25:21	1	1	1	USRTblock	1	USRT	68	600000	#ff0000	10pct	1	50pct	50pct	7000	338892	-1	338454	57	342918	0	1	1	66
6.1.1	win	2020-04-15	16:25:21	1	1	1	USRTblock	1	USRT	69	600000	#ff0000	10pct	1	50pct	50pct	6000	342921	348937	-1	57	349239	302	0	1	67
6.1.1	win	2020-04-15	16:25:21	1	1	1	USRTblock	1	USRT	70	600000	#ff0000	10pct	1	50pct	50pct	8000	349243	357253	348937	57	357556	303	0	1	68
6.1.1	win	2020-04-15	16:25:21	1	1	1	USRTblock	1	USRT	71	600000	#ff0000	10pct	1	50pct	50pct	2000	357560	359568	357253	57	359891	323	0	1	69
6.1.1	win	2020-04-15	16:25:21	1	1	1	USRTblock	1	USRT	72	600000	#ff0000	10pct	1	50pct	50pct	5000	359895	364902	359568	57	365207	305	0	1	70
6.1.1	win	2020-04-15	16:25:21	1	1	1	USRTblock	1	USRT	73	600000	#ff0000	10pct	1	50pct	50pct	2000	365211	367217	364902	57	367481	264	0	1	71
6.1.1	win	2020-04-15	16:25:21	1	1	1	USRTblock	1	USRT	74	600000	#ff0000	10pct	1	50pct	50pct	5000	367486	372501	367217	57	372822	321	0	1	72
6.1.1	win	2020-04-15	16:25:21	1	1	1	USRTblock	1	USRT	75	600000	#ff0000	10pct	1	50pct	50pct	6000	372826	378833	372501	57	379192	359	0	1	73
6.1.1	win	2020-04-15	16:25:21	1	1	1	USRTblock	1	USRT	76	600000	#ff0000	10pct	1	50pct	50pct	2000	379196	381216	378833	57	381606	390	0	1	74
6.1.1	win	2020-04-15	16:25:21	1	1	1	USRTblock	1	USRT	77	600000	#ff0000	10pct	1	50pct	50pct	8000	381610	389616	381216	57	389886	270	0	1	75
6.1.1	win	2020-04-15	16:25:21	1	1	1	USRTblock	1	USRT	78	600000	#ff0000	10pct	1	50pct	50pct	7000	389890	396898	389616	57	397225	327	0	1	76
6.1.1	win	2020-04-15	16:25:21	1	1	1	USRTblock	1	USRT	79	600000	#ff0000	10pct	1	50pct	50pct	5000	397228	402248	396898	57	402619	371	0	1	77
6.1.1	win	2020-04-15	16:25:21	1	1	1	USRTblock	1	USRT	80	600000	#ff0000	10pct	1	50pct	50pct	4000	402622	406631	402248	57	407026	395	0	1	78
6.1.1	win	2020-04-15	16:25:21	1	1	1	USRTblock	1	USRT	81	600000	#ff0000	10pct	1	50pct	50pct	7000	407030	414047	406631	57	414364	317	0	1	79
6.1.1	win	2020-04-15	16:25:21	1	1	1	USRTblock	1	USRT	82	600000	#ff0000	10pct	1	50pct	50pct	6000	414368	420380	414047	57	420720	340	0	1	80
6.1.1	win	2020-04-15	16:25:21	1	1	1	USRTblock	1	USRT	83	600000	#ff0000	10pct	1	50pct	50pct	2000	420723	422729	420380	57	423079	350	0	1	81
6.1.1	win	2020-04-15	16:25:21	1	1	1	USRTblock	1	USRT	84	600000	#ff0000	10pct	1	50pct	50pct	3000	423082	426096	422729	57	426449	353	0	1	82
6.1.1	win	2020-04-15	16:25:21	1	1	1	USRTblock	1	USRT	85	600000	#ff0000	10pct	1	50pct	50pct	7000	426453	433462	426096	57	433814	352	0	1	83
6.1.1	win	2020-04-15	16:25:21	1	1	1	USRTblock	1	USRT	86	600000	#ff0000	10pct	1	50pct	50pct	4000	433818	437828	433462	57	438171	343	0	1	84
6.1.1	win	2020-04-15	16:25:21	1	1	1	USRTblock	1	USRT	87	600000	#ff0000	10pct	1	50pct	50pct	7000	438174	445194	437828	57	445553	359	0	1	85
6.1.1	win	2020-04-15	16:25:21	1	1	1	USRTblock	1	USRT	88	600000	#ff0000	10pct	1	50pct	50pct	8000	445557	453577	445194	57	453915	338	0	1	86
6.1.1	win	2020-04-15	16:25:21	1	1	1	USRTblock	1	USRT	89	600000	#ff0000	10pct	1	50pct	50pct	4000	453918	457926	453577	57	458250	324	0	1	87
6.1.1	win	2020-04-15	16:25:21	1	1	1	USRTblock	1	USRT	90	600000	#ff0000	10pct	1	50pct	50pct	4000	458253	462259	457926	57	462662	403	0	1	88
6.1.1	win	2020-04-15	16:25:21	1	1	1	USRTblock	1	USRT	91	600000	#ff0000	10pct	1	50pct	50pct	7000	462666	469675	462259	57	469952	277	0	1	89
6.1.1	win	2020-04-15	16:25:21	1	1	1	USRTblock	1	USRT	92	600000	#ff0000	10pct	1	50pct	50pct	8000	469956	477974	469675	57	478244	270	0	1	90
6.1.1	win	2020-04-15	16:25:21	1	1	1	USRTblock	1	USRT	93	600000	#ff0000	10pct	1	50pct	50pct	5000	478247	483257	477974	57	483561	304	0	1	91
6.1.1	win	2020-04-15	16:25:21	1	1	1	USRTblock	1	USRT	94	600000	#ff0000	10pct	1	50pct	50pct	6000	483564	489573	483257	57	489834	261	0	1	92
6.1.1	win	2020-04-15	16:25:21	1	1	1	USRTblock	1	USRT	95	600000	#ff0000	10pct	1	50pct	50pct	2000	489837	491855	489573	57	492176	321	0	1	93
6.1.1	win	2020-04-15	16:25:21	1	1	1	USRTblock	1	USRT	96	600000	#ff0000	10pct	1	50pct	50pct	5000	492180	497188	491855	57	497622	434	0	1	94
6.1.1	win	2020-04-15	16:25:21	1	1	1	USRTblock	1	USRT	97	600000	#ff0000	10pct	1	50pct	50pct	3000	497625	500638	497188	57	500985	347	0	1	95
6.1.1	win	2020-04-15	16:25:21	1	1	1	USRTblock	1	USRT	98	600000	#ff0000	10pct	1	50pct	50pct	2000	500988	503005	500638	57	503314	309	0	1	96
6.1.1	win	2020-04-15	16:25:21	1	1	1	USRTblock	1	USRT	99	600000	#ff0000	10pct	1	50pct	50pct	6000	503317	509338	503005	57	509629	291	0	1	97
6.1.1	win	2020-04-15	16:25:21	1	1	1	USRTblock	1	USRT	100	600000	#ff0000	10pct	1	50pct	50pct	4000	509633	513653	509338	57	513937	284	0	1	98
6.1.1	win	2020-04-15	16:25:21	1	1	1	USRTblock	1	USRT	101	600000	#ff0000	10pct	1	50pct	50pct	2000	513940	515953	513653	57	516410	457	0	1	99
6.1.1	win	2020-04-15	16:25:21	1	1	1	USRTblock	1	USRT	102	600000	#ff0000	10pct	1	50pct	50pct	7000	516413	523419	515953	57	523680	261	0	1	100
6.1.1	win	2020-04-15	16:25:21	1	1	1	USRTblock	1	USRT	103	600000	#ff0000	10pct	1	50pct	50pct	5000	523684	528702	523419	57	529012	310	0	1	101
6.1.1	win	2020-04-15	16:25:21	1	1	1	USRTblock	1	USRT	104	600000	#ff0000	10pct	1	50pct	50pct	5000	529015	534035	528702	57	534325	290	0	1	102
6.1.1	win	2020-04-15	16:25:21	1	1	1	USRTblock	1	USRT	105	600000	#ff0000	10pct	1	50pct	50pct	2000	534328	536334	534035	57	536804	470	0	1	103
6.1.1	win	2020-04-15	16:25:21	1	1	1	USRTblock	1	USRT	106	600000	#ff0000	10pct	1	50pct	50pct	7000	536807	543817	536334	57	544054	237	0	1	104
6.1.1	win	2020-04-15	16:25:21	1	1	1	USRTblock	1	USRT	107	600000	#ff0000	10pct	1	50pct	50pct	3000	544057	547067	543817	57	547370	303	0	1	105
6.1.1	win	2020-04-15	16:25:21	1	1	1	USRTblock	1	USRT	108	600000	#ff0000	10pct	1	50pct	50pct	6000	547374	553383	547067	57	553800	417	0	1	106
6.1.1	win	2020-04-15	16:25:21	1	1	1	USRTblock	1	USRT	109	600000	#ff0000	10pct	1	50pct	50pct	2000	553803	555816	553383	57	556126	310	0	1	107
6.1.1	win	2020-04-15	16:25:21	1	1	1	USRTblock	1	USRT	110	600000	#ff0000	10pct	1	50pct	50pct	8000	556130	564149	555816	57	564484	335	0	1	108
6.1.1	win	2020-04-15	16:25:21	1	1	1	USRTblock	1	USRT	111	600000	#ff0000	10pct	1	50pct	50pct	4000	564487	568498	564149	57	568899	401	0	1	109
6.1.1	win	2020-04-15	16:25:21	1	1	1	USRTblock	1	USRT	112	600000	#ff0000	10pct	1	50pct	50pct	3000	568902	571914	568498	57	572179	265	0	1	110
6.1.1	win	2020-04-15	16:25:21	1	1	1	USRTblock	1	USRT	113	600000	#ff0000	10pct	1	50pct	50pct	7000	572183	579197	571914	57	579540	343	0	1	111
6.1.1	win	2020-04-15	16:25:21	1	1	1	USRTblock	1	USRT	114	600000	#ff0000	10pct	1	50pct	50pct	6000	579544	585563	579197	57	585915	352	0	1	112
6.1.1	win	2020-04-15	16:25:21	1	1	1	USRTblock	1	USRT	115	600000	#ff0000	10pct	1	50pct	50pct	2000	585918	587929	585563	57	588309	380	0	1	113
6.1.1	win	2020-04-15	16:25:21	1	1	1	USRTblock	1	USRT	116	600000	#ff0000	10pct	1	50pct	50pct	6000	588313	594329	587929	57	594680	351	0	1	114
6.1.1	win	2020-04-15	16:25:21	1	1	1	USRTblock	1	USRT	117	600000	#ff0000	10pct	1	50pct	50pct	3000	594684	597695	594329	57	598010	315	0	1	115
6.1.1	win	2020-04-15	16:25:21	1	1	1	USRTblock	1	USRT	118	600000	#ff0000	10pct	1	50pct	50pct	7000	598015	-1	597695	0	598104	0	1	2	116
