build	computer.platform	date	time	subject	group	sessionid	blockcode	blocknum	trialcode	trialnum	testduration	targetcolor	targetsize	fixed	targetx	targety	stiminterval	trialStart	shape.targetcircle.timestamp	lastCircleTimestamp	response	rt_elapsed	rt	EarlyResponse	countEarlyResponses	countResponses
6.1.1	win	2020-04-15	13:05:23	1	1	1	USRTblock	1	USRT	3	600000	#ff0000	10pct	1	50pct	50pct	5000	3699	8720	2367	57	8985	265	0	0	1
6.1.1	win	2020-04-15	13:05:23	1	1	1	USRTblock	1	USRT	4	600000	#ff0000	10pct	1	50pct	50pct	2000	9035	11052	8720	57	11366	314	0	0	2
6.1.1	win	2020-04-15	13:05:23	1	1	1	USRTblock	1	USRT	5	600000	#ff0000	10pct	1	50pct	50pct	3000	11369	14386	11052	57	14678	292	0	0	3
6.1.1	win	2020-04-15	13:05:23	1	1	1	USRTblock	1	USRT	6	600000	#ff0000	10pct	1	50pct	50pct	7000	14682	21702	14386	57	21985	283	0	0	4
6.1.1	win	2020-04-15	13:05:23	1	1	1	USRTblock	1	USRT	7	600000	#ff0000	10pct	1	50pct	50pct	3000	21988	25001	21702	57	25269	268	0	0	5
6.1.1	win	2020-04-15	13:05:23	1	1	1	USRTblock	1	USRT	8	600000	#ff0000	10pct	1	50pct	50pct	7000	25272	32284	25001	57	32607	323	0	0	6
6.1.1	win	2020-04-15	13:05:23	1	1	1	USRTblock	1	USRT	9	600000	#ff0000	10pct	1	50pct	50pct	3000	32610	35617	32284	57	35912	295	0	0	7
6.1.1	win	2020-04-15	13:05:23	1	1	1	USRTblock	1	USRT	10	600000	#ff0000	10pct	1	50pct	50pct	8000	35915	43932	35617	57	44198	266	0	0	8
6.1.1	win	2020-04-15	13:05:23	1	1	1	USRTblock	1	USRT	11	600000	#ff0000	10pct	1	50pct	50pct	2000	44200	46215	43932	57	46487	272	0	0	9
6.1.1	win	2020-04-15	13:05:23	1	1	1	USRTblock	1	USRT	12	600000	#ff0000	10pct	1	50pct	50pct	6000	46489	52498	46215	57	52741	243	0	0	10
6.1.1	win	2020-04-15	13:05:23	1	1	1	USRTblock	1	USRT	13	600000	#ff0000	10pct	1	50pct	50pct	2000	52744	54764	52498	57	55113	349	0	0	11
6.1.1	win	2020-04-15	13:05:23	1	1	1	USRTblock	1	USRT	14	600000	#ff0000	10pct	1	50pct	50pct	3000	55115	58130	54764	57	58410	280	0	0	12
6.1.1	win	2020-04-15	13:05:23	1	1	1	USRTblock	1	USRT	15	600000	#ff0000	10pct	1	50pct	50pct	5000	58412	63430	58130	57	63665	235	0	0	13
6.1.1	win	2020-04-15	13:05:23	1	1	1	USRTblock	1	USRT	16	600000	#ff0000	10pct	1	50pct	50pct	6000	63668	69680	63430	57	69952	272	0	0	14
6.1.1	win	2020-04-15	13:05:23	1	1	1	USRTblock	1	USRT	17	600000	#ff0000	10pct	1	50pct	50pct	3000	69955	72963	69680	57	73239	276	0	0	15
6.1.1	win	2020-04-15	13:05:23	1	1	1	USRTblock	1	USRT	18	600000	#ff0000	10pct	1	50pct	50pct	8000	73242	81263	72963	57	81531	268	0	0	16
6.1.1	win	2020-04-15	13:05:23	1	1	1	USRTblock	1	USRT	19	600000	#ff0000	10pct	1	50pct	50pct	7000	81535	88545	81263	57	88865	320	0	0	17
6.1.1	win	2020-04-15	13:05:23	1	1	1	USRTblock	1	USRT	20	600000	#ff0000	10pct	1	50pct	50pct	4000	88869	92878	88545	57	93168	290	0	0	18
6.1.1	win	2020-04-15	13:05:23	1	1	1	USRTblock	1	USRT	21	600000	#ff0000	10pct	1	50pct	50pct	3000	93172	96177	92878	57	96433	256	0	0	19
6.1.1	win	2020-04-15	13:05:23	1	1	1	USRTblock	1	USRT	22	600000	#ff0000	10pct	1	50pct	50pct	3000	96437	99445	96177	57	99688	243	0	0	20
6.1.1	win	2020-04-15	13:05:23	1	1	1	USRTblock	1	USRT	23	600000	#ff0000	10pct	1	50pct	50pct	8000	99692	107710	99445	57	108005	295	0	0	21
6.1.1	win	2020-04-15	13:05:23	1	1	1	USRTblock	1	USRT	24	600000	#ff0000	10pct	1	50pct	50pct	4000	108008	112026	107710	57	112304	278	0	0	22
6.1.1	win	2020-04-15	13:05:23	1	1	1	USRTblock	1	USRT	25	600000	#ff0000	10pct	1	50pct	50pct	7000	112307	119325	112026	57	119656	331	0	0	23
6.1.1	win	2020-04-15	13:05:23	1	1	1	USRTblock	1	USRT	26	600000	#ff0000	10pct	1	50pct	50pct	4000	119659	123674	119325	57	123997	323	0	0	24
6.1.1	win	2020-04-15	13:05:23	1	1	1	USRTblock	1	USRT	27	600000	#ff0000	10pct	1	50pct	50pct	6000	124001	130008	123674	57	130259	251	0	0	25
6.1.1	win	2020-04-15	13:05:23	1	1	1	USRTblock	1	USRT	28	600000	#ff0000	10pct	1	50pct	50pct	2000	130262	132274	130008	57	132584	310	0	0	26
6.1.1	win	2020-04-15	13:05:23	1	1	1	USRTblock	1	USRT	29	600000	#ff0000	10pct	1	50pct	50pct	3000	132587	135606	132274	57	135902	296	0	0	27
6.1.1	win	2020-04-15	13:05:23	1	1	1	USRTblock	1	USRT	30	600000	#ff0000	10pct	1	50pct	50pct	2000	135906	137923	135606	57	138295	372	0	0	28
6.1.1	win	2020-04-15	13:05:23	1	1	1	USRTblock	1	USRT	31	600000	#ff0000	10pct	1	50pct	50pct	5000	138299	143306	137923	57	143713	407	0	0	29
6.1.1	win	2020-04-15	13:05:23	1	1	1	USRTblock	1	USRT	32	600000	#ff0000	10pct	1	50pct	50pct	8000	143716	151722	143306	57	152001	279	0	0	30
6.1.1	win	2020-04-15	13:05:23	1	1	1	USRTblock	1	USRT	33	600000	#ff0000	10pct	1	50pct	50pct	7000	152004	159022	151722	57	159322	300	0	0	31
6.1.1	win	2020-04-15	13:05:23	1	1	1	USRTblock	1	USRT	34	600000	#ff0000	10pct	1	50pct	50pct	7000	159326	166338	159022	57	166642	304	0	0	32
6.1.1	win	2020-04-15	13:05:23	1	1	1	USRTblock	1	USRT	35	600000	#ff0000	10pct	1	50pct	50pct	2000	166645	168653	166338	57	168975	322	0	0	33
6.1.1	win	2020-04-15	13:05:23	1	1	1	USRTblock	1	USRT	36	600000	#ff0000	10pct	1	50pct	50pct	4000	168978	172987	168653	57	173271	284	0	0	34
6.1.1	win	2020-04-15	13:05:23	1	1	1	USRTblock	1	USRT	37	600000	#ff0000	10pct	1	50pct	50pct	2000	173274	175286	172987	57	175534	248	0	0	35
6.1.1	win	2020-04-15	13:05:23	1	1	1	USRTblock	1	USRT	38	600000	#ff0000	10pct	1	50pct	50pct	8000	175538	183553	175286	57	183799	246	0	0	36
6.1.1	win	2020-04-15	13:05:23	1	1	1	USRTblock	1	USRT	39	600000	#ff0000	10pct	1	50pct	50pct	3000	183803	186818	183553	57	187101	283	0	0	37
6.1.1	win	2020-04-15	13:05:23	1	1	1	USRTblock	1	USRT	40	600000	#ff0000	10pct	1	50pct	50pct	5000	187104	192118	186818	57	192382	264	0	0	38
6.1.1	win	2020-04-15	13:05:23	1	1	1	USRTblock	1	USRT	41	600000	#ff0000	10pct	1	50pct	50pct	3000	192385	195401	192118	57	195730	329	0	0	39
6.1.1	win	2020-04-15	13:05:23	1	1	1	USRTblock	1	USRT	42	600000	#ff0000	10pct	1	50pct	50pct	7000	195734	202750	195401	57	203224	474	0	0	40
6.1.1	win	2020-04-15	13:05:23	1	1	1	USRTblock	1	USRT	43	600000	#ff0000	10pct	1	50pct	50pct	4000	203227	207233	202750	57	207581	348	0	0	41
6.1.1	win	2020-04-15	13:05:23	1	1	1	USRTblock	1	USRT	44	600000	#ff0000	10pct	1	50pct	50pct	2000	207584	209599	207233	57	210006	407	0	0	42
6.1.1	win	2020-04-15	13:05:23	1	1	1	USRTblock	1	USRT	45	600000	#ff0000	10pct	1	50pct	50pct	4000	210009	214016	209599	57	214351	335	0	0	43
6.1.1	win	2020-04-15	13:05:23	1	1	1	USRTblock	1	USRT	46	600000	#ff0000	10pct	1	50pct	50pct	5000	214354	219365	214016	57	219665	300	0	0	44
6.1.1	win	2020-04-15	13:05:23	1	1	1	USRTblock	1	USRT	47	600000	#ff0000	10pct	1	50pct	50pct	8000	219668	227681	219365	57	227973	292	0	0	45
6.1.1	win	2020-04-15	13:05:23	1	1	1	USRTblock	1	USRT	48	600000	#ff0000	10pct	1	50pct	50pct	6000	227976	233980	227681	57	234301	321	0	0	46
6.1.1	win	2020-04-15	13:05:23	1	1	1	USRTblock	1	USRT	49	600000	#ff0000	10pct	1	50pct	50pct	8000	234306	242313	233980	57	242592	279	0	0	47
6.1.1	win	2020-04-15	13:05:23	1	1	1	USRTblock	1	USRT	50	600000	#ff0000	10pct	1	50pct	50pct	8000	242596	250612	242313	57	250881	269	0	0	48
6.1.1	win	2020-04-15	13:05:23	1	1	1	USRTblock	1	USRT	51	600000	#ff0000	10pct	1	50pct	50pct	8000	250885	258895	250612	57	259312	417	0	0	49
6.1.1	win	2020-04-15	13:05:23	1	1	1	USRTblock	1	USRT	52	600000	#ff0000	10pct	1	50pct	50pct	7000	259316	266327	258895	57	266631	304	0	0	50
6.1.1	win	2020-04-15	13:05:23	1	1	1	USRTblock	1	USRT	53	600000	#ff0000	10pct	1	50pct	50pct	8000	266634	274644	266327	57	275070	426	0	0	51
6.1.1	win	2020-04-15	13:05:23	1	1	1	USRTblock	1	USRT	54	600000	#ff0000	10pct	1	50pct	50pct	6000	275074	281093	274644	57	281359	266	0	0	52
6.1.1	win	2020-04-15	13:05:23	1	1	1	USRTblock	1	USRT	55	600000	#ff0000	10pct	1	50pct	50pct	4000	281363	285375	281093	57	285686	311	0	0	53
6.1.1	win	2020-04-15	13:05:23	1	1	1	USRTblock	1	USRT	56	600000	#ff0000	10pct	1	50pct	50pct	6000	285690	291708	285375	57	291968	260	0	0	54
6.1.1	win	2020-04-15	13:05:23	1	1	1	USRTblock	1	USRT	57	600000	#ff0000	10pct	1	50pct	50pct	7000	291971	298991	291708	57	299336	345	0	0	55
6.1.1	win	2020-04-15	13:05:23	1	1	1	USRTblock	1	USRT	58	600000	#ff0000	10pct	1	50pct	50pct	3000	299339	302357	298991	57	302686	329	0	0	56
6.1.1	win	2020-04-15	13:05:23	1	1	1	USRTblock	1	USRT	59	600000	#ff0000	10pct	1	50pct	50pct	7000	302689	309706	302357	57	310002	296	0	0	57
6.1.1	win	2020-04-15	13:05:23	1	1	1	USRTblock	1	USRT	60	600000	#ff0000	10pct	1	50pct	50pct	8000	310006	318022	309706	57	318347	325	0	0	58
6.1.1	win	2020-04-15	13:05:23	1	1	1	USRTblock	1	USRT	61	600000	#ff0000	10pct	1	50pct	50pct	2000	318350	320356	318022	57	320712	356	0	0	59
6.1.1	win	2020-04-15	13:05:23	1	1	1	USRTblock	1	USRT	62	600000	#ff0000	10pct	1	50pct	50pct	4000	320716	324738	320356	57	325057	319	0	0	60
6.1.1	win	2020-04-15	13:05:23	1	1	1	USRTblock	1	USRT	63	600000	#ff0000	10pct	1	50pct	50pct	5000	325061	330071	324738	57	330386	315	0	0	61
6.1.1	win	2020-04-15	13:05:23	1	1	1	USRTblock	1	USRT	64	600000	#ff0000	10pct	1	50pct	50pct	2000	330390	332403	330071	57	332859	456	0	0	62
6.1.1	win	2020-04-15	13:05:23	1	1	1	USRTblock	1	USRT	65	600000	#ff0000	10pct	1	50pct	50pct	6000	332862	338871	332403	57	339122	251	0	0	63
6.1.1	win	2020-04-15	13:05:23	1	1	1	USRTblock	1	USRT	66	600000	#ff0000	10pct	1	50pct	50pct	3000	339126	342136	338871	57	342422	286	0	0	64
6.1.1	win	2020-04-15	13:05:23	1	1	1	USRTblock	1	USRT	67	600000	#ff0000	10pct	1	50pct	50pct	8000	342425	350436	342136	57	350735	299	0	0	65
6.1.1	win	2020-04-15	13:05:23	1	1	1	USRTblock	1	USRT	68	600000	#ff0000	10pct	1	50pct	50pct	2000	350739	352751	350436	57	353070	319	0	0	66
6.1.1	win	2020-04-15	13:05:23	1	1	1	USRTblock	1	USRT	69	600000	#ff0000	10pct	1	50pct	50pct	6000	353073	359085	352751	57	359381	296	0	0	67
6.1.1	win	2020-04-15	13:05:23	1	1	1	USRTblock	1	USRT	70	600000	#ff0000	10pct	1	50pct	50pct	4000	359384	363401	359085	57	363780	379	0	0	68
6.1.1	win	2020-04-15	13:05:23	1	1	1	USRTblock	1	USRT	71	600000	#ff0000	10pct	1	50pct	50pct	5000	363783	368800	363401	57	369087	287	0	0	69
6.1.1	win	2020-04-15	13:05:23	1	1	1	USRTblock	1	USRT	72	600000	#ff0000	10pct	1	50pct	50pct	8000	369090	377100	368800	57	377563	463	0	0	70
6.1.1	win	2020-04-15	13:05:23	1	1	1	USRTblock	1	USRT	73	600000	#ff0000	10pct	1	50pct	50pct	3000	377566	380582	377100	57	380945	363	0	0	71
6.1.1	win	2020-04-15	13:05:23	1	1	1	USRTblock	1	USRT	74	600000	#ff0000	10pct	1	50pct	50pct	3000	380948	383965	380582	57	384425	460	0	0	72
6.1.1	win	2020-04-15	13:05:23	1	1	1	USRTblock	1	USRT	75	600000	#ff0000	10pct	1	50pct	50pct	2000	384430	386448	383965	57	387183	735	0	0	73
6.1.1	win	2020-04-15	13:05:23	1	1	1	USRTblock	1	USRT	76	600000	#ff0000	10pct	1	50pct	50pct	7000	387187	394198	386448	57	394574	376	0	0	74
6.1.1	win	2020-04-15	13:05:23	1	1	1	USRTblock	1	USRT	77	600000	#ff0000	10pct	1	50pct	50pct	8000	394578	402597	394198	57	402880	283	0	0	75
6.1.1	win	2020-04-15	13:05:23	1	1	1	USRTblock	1	USRT	78	600000	#ff0000	10pct	1	50pct	50pct	3000	402883	405896	402597	57	406244	348	0	0	76
6.1.1	win	2020-04-15	13:05:23	1	1	1	USRTblock	1	USRT	79	600000	#ff0000	10pct	1	50pct	50pct	8000	406247	414262	405896	57	414608	346	0	0	77
6.1.1	win	2020-04-15	13:05:23	1	1	1	USRTblock	1	USRT	80	600000	#ff0000	10pct	1	50pct	50pct	6000	414611	420628	414262	57	420961	333	0	0	78
6.1.1	win	2020-04-15	13:05:23	1	1	1	USRTblock	1	USRT	81	600000	#ff0000	10pct	1	50pct	50pct	2000	420965	422978	420628	57	423376	398	0	0	79
6.1.1	win	2020-04-15	13:05:23	1	1	1	USRTblock	1	USRT	82	600000	#ff0000	10pct	1	50pct	50pct	4000	423379	427394	422978	57	427717	323	0	0	80
6.1.1	win	2020-04-15	13:05:23	1	1	1	USRTblock	1	USRT	83	600000	#ff0000	10pct	1	50pct	50pct	6000	427721	433727	427394	57	434079	352	0	0	81
6.1.1	win	2020-04-15	13:05:23	1	1	1	USRTblock	1	USRT	84	600000	#ff0000	10pct	1	50pct	50pct	3000	434082	437093	433727	57	437594	501	0	0	82
6.1.1	win	2020-04-15	13:05:23	1	1	1	USRTblock	1	USRT	85	600000	#ff0000	10pct	1	50pct	50pct	3000	437597	440610	437093	57	440926	316	0	0	83
6.1.1	win	2020-04-15	13:05:23	1	1	1	USRTblock	1	USRT	86	600000	#ff0000	10pct	1	50pct	50pct	6000	440930	446942	440610	57	447247	305	0	0	84
6.1.1	win	2020-04-15	13:05:23	1	1	1	USRTblock	1	USRT	87	600000	#ff0000	10pct	1	50pct	50pct	7000	447250	454258	446942	57	454637	379	0	0	85
6.1.1	win	2020-04-15	13:05:23	1	1	1	USRTblock	1	USRT	88	600000	#ff0000	10pct	1	50pct	50pct	5000	454641	459657	454258	57	459944	287	0	0	86
6.1.1	win	2020-04-15	13:05:23	1	1	1	USRTblock	1	USRT	89	600000	#ff0000	10pct	1	50pct	50pct	5000	459948	464957	459657	57	465349	392	0	0	87
6.1.1	win	2020-04-15	13:05:23	1	1	1	USRTblock	1	USRT	90	600000	#ff0000	10pct	1	50pct	50pct	3000	465353	468374	464957	57	468705	331	0	0	88
6.1.1	win	2020-04-15	13:05:23	1	1	1	USRTblock	1	USRT	91	600000	#ff0000	10pct	1	50pct	50pct	3000	468708	471723	468374	57	472088	365	0	0	89
6.1.1	win	2020-04-15	13:05:23	1	1	1	USRTblock	1	USRT	92	600000	#ff0000	10pct	1	50pct	50pct	5000	472091	477106	471723	57	477414	308	0	0	90
6.1.1	win	2020-04-15	13:05:23	1	1	1	USRTblock	1	USRT	93	600000	#ff0000	10pct	1	50pct	50pct	5000	477417	482422	477106	57	482748	326	0	0	91
6.1.1	win	2020-04-15	13:05:23	1	1	1	USRTblock	1	USRT	94	600000	#ff0000	10pct	1	50pct	50pct	8000	482752	490772	482422	57	491017	245	0	0	92
6.1.1	win	2020-04-15	13:05:23	1	1	1	USRTblock	1	USRT	95	600000	#ff0000	10pct	1	50pct	50pct	8000	491021	499038	490772	57	499455	417	0	0	93
6.1.1	win	2020-04-15	13:05:23	1	1	1	USRTblock	1	USRT	96	600000	#ff0000	10pct	1	50pct	50pct	4000	499459	503470	499038	57	503973	503	0	0	94
6.1.1	win	2020-04-15	13:05:23	1	1	1	USRTblock	1	USRT	97	600000	#ff0000	10pct	1	50pct	50pct	5000	503977	508986	503470	57	509310	324	0	0	95
6.1.1	win	2020-04-15	13:05:23	1	1	1	USRTblock	1	USRT	98	600000	#ff0000	10pct	1	50pct	50pct	5000	509313	514319	508986	57	514637	318	0	0	96
6.1.1	win	2020-04-15	13:05:23	1	1	1	USRTblock	1	USRT	99	600000	#ff0000	10pct	1	50pct	50pct	8000	514642	522652	514319	57	523078	426	0	0	97
6.1.1	win	2020-04-15	13:05:23	1	1	1	USRTblock	1	USRT	100	600000	#ff0000	10pct	1	50pct	50pct	4000	523082	527102	522652	57	527427	325	0	0	98
6.1.1	win	2020-04-15	13:05:23	1	1	1	USRTblock	1	USRT	101	600000	#ff0000	10pct	1	50pct	50pct	4000	527431	531450	527102	57	531756	306	0	0	99
6.1.1	win	2020-04-15	13:05:23	1	1	1	USRTblock	1	USRT	102	600000	#ff0000	10pct	1	50pct	50pct	3000	531762	534783	531450	57	535160	377	0	0	100
6.1.1	win	2020-04-15	13:05:23	1	1	1	USRTblock	1	USRT	103	600000	#ff0000	10pct	1	50pct	50pct	5000	535164	540183	534783	57	540617	434	0	0	101
6.1.1	win	2020-04-15	13:05:23	1	1	1	USRTblock	1	USRT	104	600000	#ff0000	10pct	1	50pct	50pct	4000	540620	544633	540183	57	544999	366	0	0	102
6.1.1	win	2020-04-15	13:05:23	1	1	1	USRTblock	1	USRT	105	600000	#ff0000	10pct	1	50pct	50pct	4000	545003	549015	544633	57	549277	262	0	0	103
6.1.1	win	2020-04-15	13:05:23	1	1	1	USRTblock	1	USRT	106	600000	#ff0000	10pct	1	50pct	50pct	5000	549281	554298	549015	57	554555	257	0	0	104
6.1.1	win	2020-04-15	13:05:23	1	1	1	USRTblock	1	USRT	107	600000	#ff0000	10pct	1	50pct	50pct	6000	554558	560564	554298	57	560829	265	0	0	105
6.1.1	win	2020-04-15	13:05:23	1	1	1	USRTblock	1	USRT	108	600000	#ff0000	10pct	1	50pct	50pct	6000	560832	566847	560564	57	567135	288	0	0	106
6.1.1	win	2020-04-15	13:05:23	1	1	1	USRTblock	1	USRT	109	600000	#ff0000	10pct	1	50pct	50pct	4000	567138	571147	566847	57	571412	265	0	0	107
6.1.1	win	2020-04-15	13:05:23	1	1	1	USRTblock	1	USRT	110	600000	#ff0000	10pct	1	50pct	50pct	4000	571415	575429	571147	57	575722	293	0	0	108
6.1.1	win	2020-04-15	13:05:23	1	1	1	USRTblock	1	USRT	111	600000	#ff0000	10pct	1	50pct	50pct	7000	575726	582746	575429	57	583003	257	0	0	109
6.1.1	win	2020-04-15	13:05:23	1	1	1	USRTblock	1	USRT	112	600000	#ff0000	10pct	1	50pct	50pct	8000	583007	591012	582746	57	591274	262	0	0	110
6.1.1	win	2020-04-15	13:05:23	1	1	1	USRTblock	1	USRT	113	600000	#ff0000	10pct	1	50pct	50pct	5000	591277	596294	591012	57	596560	266	0	0	111
6.1.1	win	2020-04-15	13:05:23	1	1	1	USRTblock	1	USRT	114	600000	#ff0000	10pct	1	50pct	50pct	8000	596563	-1	596294	0	596662	0	1	1	112
