build	computer.platform	date	time	subject	group	sessionid	blockcode	blocknum	trialcode	trialnum	testduration	targetcolor	targetsize	fixed	targetx	targety	stiminterval	trialStart	shape.targetcircle.timestamp	lastCircleTimestamp	response	rt_elapsed	rt	EarlyResponse	countEarlyResponses	countResponses
6.1.1	win	2020-04-16	16:24:52	1	1	1	USRTblock	1	USRT	3	600000	#ff0000	10pct	1	50pct	50pct	8000	2726	10745	1874	57	11016	271	0	0	1
6.1.1	win	2020-04-16	16:24:52	1	1	1	USRTblock	1	USRT	4	600000	#ff0000	10pct	1	50pct	50pct	5000	11031	16043	10745	57	16330	287	0	0	2
6.1.1	win	2020-04-16	16:24:52	1	1	1	USRTblock	1	USRT	5	600000	#ff0000	10pct	1	50pct	50pct	6000	16334	22342	16043	57	22572	230	0	0	3
6.1.1	win	2020-04-16	16:24:52	1	1	1	USRTblock	1	USRT	6	600000	#ff0000	10pct	1	50pct	50pct	5000	22576	27592	22342	57	27857	265	0	0	4
6.1.1	win	2020-04-16	16:24:52	1	1	1	USRTblock	1	USRT	7	600000	#ff0000	10pct	1	50pct	50pct	8000	27860	35875	27592	57	36203	328	0	0	5
6.1.1	win	2020-04-16	16:24:52	1	1	1	USRTblock	1	USRT	8	600000	#ff0000	10pct	1	50pct	50pct	8000	36207	44224	35875	57	44508	284	0	0	6
6.1.1	win	2020-04-16	16:24:52	1	1	1	USRTblock	1	USRT	9	600000	#ff0000	10pct	1	50pct	50pct	3000	44511	47524	44224	57	47815	291	0	0	7
6.1.1	win	2020-04-16	16:24:52	1	1	1	USRTblock	1	USRT	10	600000	#ff0000	10pct	1	50pct	50pct	4000	47819	51839	47524	57	52144	305	0	0	8
6.1.1	win	2020-04-16	16:24:52	1	1	1	USRTblock	1	USRT	11	600000	#ff0000	10pct	1	50pct	50pct	3000	52148	55155	51839	57	55560	405	0	0	9
6.1.1	win	2020-04-16	16:24:52	1	1	1	USRTblock	1	USRT	12	600000	#ff0000	10pct	1	50pct	50pct	4000	55563	59572	55155	57	59867	295	0	0	10
6.1.1	win	2020-04-16	16:24:52	1	1	1	USRTblock	1	USRT	13	600000	#ff0000	10pct	1	50pct	50pct	8000	59871	67888	59572	57	68196	308	0	0	11
6.1.1	win	2020-04-16	16:24:52	1	1	1	USRTblock	1	USRT	14	600000	#ff0000	10pct	1	50pct	50pct	3000	68200	71204	67888	57	71566	362	0	0	12
6.1.1	win	2020-04-16	16:24:52	1	1	1	USRTblock	1	USRT	15	600000	#ff0000	10pct	1	50pct	50pct	3000	71569	74587	71204	57	74881	294	0	0	13
6.1.1	win	2020-04-16	16:24:52	1	1	1	USRTblock	1	USRT	16	600000	#ff0000	10pct	1	50pct	50pct	5000	74884	79904	74587	57	80220	316	0	0	14
6.1.1	win	2020-04-16	16:24:52	1	1	1	USRTblock	1	USRT	17	600000	#ff0000	10pct	1	50pct	50pct	6000	80224	86236	79904	57	86695	459	0	0	15
6.1.1	win	2020-04-16	16:24:52	1	1	1	USRTblock	1	USRT	18	600000	#ff0000	10pct	1	50pct	50pct	5000	86698	91720	86236	57	92009	289	0	0	16
6.1.1	win	2020-04-16	16:24:52	1	1	1	USRTblock	1	USRT	19	600000	#ff0000	10pct	1	50pct	50pct	2000	92013	94019	91720	57	94302	283	0	0	17
6.1.1	win	2020-04-16	16:24:52	1	1	1	USRTblock	1	USRT	20	600000	#ff0000	10pct	1	50pct	50pct	5000	94305	99318	94019	57	99610	292	0	0	18
6.1.1	win	2020-04-16	16:24:52	1	1	1	USRTblock	1	USRT	21	600000	#ff0000	10pct	1	50pct	50pct	6000	99614	105635	99318	57	105918	283	0	0	19
6.1.1	win	2020-04-16	16:24:52	1	1	1	USRTblock	1	USRT	22	600000	#ff0000	10pct	1	50pct	50pct	7000	105922	112933	105635	57	113223	290	0	0	20
6.1.1	win	2020-04-16	16:24:52	1	1	1	USRTblock	1	USRT	23	600000	#ff0000	10pct	1	50pct	50pct	7000	113227	120233	112933	57	120528	295	0	0	21
6.1.1	win	2020-04-16	16:24:52	1	1	1	USRTblock	1	USRT	24	600000	#ff0000	10pct	1	50pct	50pct	7000	120531	127549	120233	57	127814	265	0	0	22
6.1.1	win	2020-04-16	16:24:52	1	1	1	USRTblock	1	USRT	25	600000	#ff0000	10pct	1	50pct	50pct	8000	127817	135831	127549	57	136111	280	0	0	23
6.1.1	win	2020-04-16	16:24:52	1	1	1	USRTblock	1	USRT	26	600000	#ff0000	10pct	1	50pct	50pct	3000	136114	139131	135831	57	139462	331	0	0	24
6.1.1	win	2020-04-16	16:24:52	1	1	1	USRTblock	1	USRT	27	600000	#ff0000	10pct	1	50pct	50pct	2000	139465	141480	139131	57	141867	387	0	0	25
6.1.1	win	2020-04-16	16:24:52	1	1	1	USRTblock	1	USRT	28	600000	#ff0000	10pct	1	50pct	50pct	4000	141871	145880	141480	57	146146	266	0	0	26
6.1.1	win	2020-04-16	16:24:52	1	1	1	USRTblock	1	USRT	29	600000	#ff0000	10pct	1	50pct	50pct	2000	146150	148163	145880	57	148486	323	0	0	27
6.1.1	win	2020-04-16	16:24:52	1	1	1	USRTblock	1	USRT	30	600000	#ff0000	10pct	1	50pct	50pct	6000	148490	154496	148163	57	154861	365	0	0	28
6.1.1	win	2020-04-16	16:24:52	1	1	1	USRTblock	1	USRT	31	600000	#ff0000	10pct	1	50pct	50pct	2000	154864	156879	154496	57	157422	543	0	0	29
6.1.1	win	2020-04-16	16:24:52	1	1	1	USRTblock	1	USRT	32	600000	#ff0000	10pct	1	50pct	50pct	5000	157426	162445	156879	57	162729	284	0	0	30
6.1.1	win	2020-04-16	16:24:52	1	1	1	USRTblock	1	USRT	33	600000	#ff0000	10pct	1	50pct	50pct	7000	162733	169745	162445	57	170031	286	0	0	31
6.1.1	win	2020-04-16	16:24:52	1	1	1	USRTblock	1	USRT	34	600000	#ff0000	10pct	1	50pct	50pct	8000	170034	178044	169745	57	178293	249	0	0	32
6.1.1	win	2020-04-16	16:24:52	1	1	1	USRTblock	1	USRT	35	600000	#ff0000	10pct	1	50pct	50pct	8000	178297	186310	178044	57	186605	295	0	0	33
6.1.1	win	2020-04-16	16:24:52	1	1	1	USRTblock	1	USRT	36	600000	#ff0000	10pct	1	50pct	50pct	4000	186609	190625	186310	57	190912	287	0	0	34
6.1.1	win	2020-04-16	16:24:52	1	1	1	USRTblock	1	USRT	37	600000	#ff0000	10pct	1	50pct	50pct	7000	190915	197925	190625	57	198204	279	0	0	35
6.1.1	win	2020-04-16	16:24:52	1	1	1	USRTblock	1	USRT	38	600000	#ff0000	10pct	1	50pct	50pct	6000	198207	204224	197925	57	204525	301	0	0	36
6.1.1	win	2020-04-16	16:24:52	1	1	1	USRTblock	1	USRT	39	600000	#ff0000	10pct	1	50pct	50pct	4000	204528	208541	204224	57	208921	380	0	0	37
6.1.1	win	2020-04-16	16:24:52	1	1	1	USRTblock	1	USRT	40	600000	#ff0000	10pct	1	50pct	50pct	5000	208924	213940	208541	57	214272	332	0	0	38
6.1.1	win	2020-04-16	16:24:52	1	1	1	USRTblock	1	USRT	41	600000	#ff0000	10pct	1	50pct	50pct	4000	214276	218290	213940	57	218581	291	0	0	39
6.1.1	win	2020-04-16	16:24:52	1	1	1	USRTblock	1	USRT	42	600000	#ff0000	10pct	1	50pct	50pct	8000	218584	226589	218290	57	226875	286	0	0	40
6.1.1	win	2020-04-16	16:24:52	1	1	1	USRTblock	1	USRT	43	600000	#ff0000	10pct	1	50pct	50pct	8000	226878	234888	226589	57	235174	286	0	0	41
6.1.1	win	2020-04-16	16:24:52	1	1	1	USRTblock	1	USRT	44	600000	#ff0000	10pct	1	50pct	50pct	7000	235178	242187	234888	57	242451	264	0	0	42
6.1.1	win	2020-04-16	16:24:52	1	1	1	USRTblock	1	USRT	45	600000	#ff0000	10pct	1	50pct	50pct	8000	242456	250470	242187	57	250821	351	0	0	43
6.1.1	win	2020-04-16	16:24:52	1	1	1	USRTblock	1	USRT	46	600000	#ff0000	10pct	1	50pct	50pct	8000	250825	258836	250470	57	259111	275	0	0	44
6.1.1	win	2020-04-16	16:24:52	1	1	1	USRTblock	1	USRT	47	600000	#ff0000	10pct	1	50pct	50pct	4000	259115	263135	258836	57	263404	269	0	0	45
6.1.1	win	2020-04-16	16:24:52	1	1	1	USRTblock	1	USRT	48	600000	#ff0000	10pct	1	50pct	50pct	4000	263408	267418	263135	57	267773	355	0	0	46
6.1.1	win	2020-04-16	16:24:52	1	1	1	USRTblock	1	USRT	49	600000	#ff0000	10pct	1	50pct	50pct	7000	267777	274784	267418	57	275051	267	0	0	47
6.1.1	win	2020-04-16	16:24:52	1	1	1	USRTblock	1	USRT	50	600000	#ff0000	10pct	1	50pct	50pct	6000	275055	281067	274784	57	281463	396	0	0	48
6.1.1	win	2020-04-16	16:24:52	1	1	1	USRTblock	1	USRT	51	600000	#ff0000	10pct	1	50pct	50pct	2000	281466	283483	281067	57	284619	1136	0	0	49
6.1.1	win	2020-04-16	16:24:52	1	1	1	USRTblock	1	USRT	52	600000	#ff0000	10pct	1	50pct	50pct	6000	284622	290632	283483	57	290901	269	0	0	50
6.1.1	win	2020-04-16	16:24:52	1	1	1	USRTblock	1	USRT	53	600000	#ff0000	10pct	1	50pct	50pct	4000	290905	294915	290632	57	295175	260	0	0	51
6.1.1	win	2020-04-16	16:24:52	1	1	1	USRTblock	1	USRT	54	600000	#ff0000	10pct	1	50pct	50pct	4000	295179	299198	294915	57	299454	256	0	0	52
6.1.1	win	2020-04-16	16:24:52	1	1	1	USRTblock	1	USRT	55	600000	#ff0000	10pct	1	50pct	50pct	2000	299459	301481	299198	57	301788	307	0	0	53
6.1.1	win	2020-04-16	16:24:52	1	1	1	USRTblock	1	USRT	56	600000	#ff0000	10pct	1	50pct	50pct	2000	301792	303798	301481	57	304119	321	0	0	54
6.1.1	win	2020-04-16	16:24:52	1	1	1	USRTblock	1	USRT	57	600000	#ff0000	10pct	1	50pct	50pct	6000	304124	310131	303798	57	310454	323	0	0	55
6.1.1	win	2020-04-16	16:24:52	1	1	1	USRTblock	1	USRT	58	600000	#ff0000	10pct	1	50pct	50pct	7000	310457	317463	310131	57	317798	335	0	0	56
6.1.1	win	2020-04-16	16:24:52	1	1	1	USRTblock	1	USRT	59	600000	#ff0000	10pct	1	50pct	50pct	8000	317802	325813	317463	57	326113	300	0	0	57
6.1.1	win	2020-04-16	16:24:52	1	1	1	USRTblock	1	USRT	60	600000	#ff0000	10pct	1	50pct	50pct	6000	326116	332128	325813	57	332543	415	0	0	58
6.1.1	win	2020-04-16	16:24:52	1	1	1	USRTblock	1	USRT	61	600000	#ff0000	10pct	1	50pct	50pct	3000	332546	335561	332128	57	335925	364	0	0	59
6.1.1	win	2020-04-16	16:24:52	1	1	1	USRTblock	1	USRT	62	600000	#ff0000	10pct	1	50pct	50pct	3000	335928	338944	335561	57	339267	323	0	0	60
6.1.1	win	2020-04-16	16:24:52	1	1	1	USRTblock	1	USRT	63	600000	#ff0000	10pct	1	50pct	50pct	8000	339270	-1	338944	57	346150	0	1	1	61
6.1.1	win	2020-04-16	16:24:52	1	1	1	USRTblock	1	USRT	64	600000	#ff0000	10pct	1	50pct	50pct	8000	346153	354160	-1	57	354408	248	0	1	62
6.1.1	win	2020-04-16	16:24:52	1	1	1	USRTblock	1	USRT	65	600000	#ff0000	10pct	1	50pct	50pct	3000	354411	357425	354160	57	357714	289	0	1	63
6.1.1	win	2020-04-16	16:24:52	1	1	1	USRTblock	1	USRT	66	600000	#ff0000	10pct	1	50pct	50pct	8000	357717	365725	357425	57	365981	256	0	1	64
6.1.1	win	2020-04-16	16:24:52	1	1	1	USRTblock	1	USRT	67	600000	#ff0000	10pct	1	50pct	50pct	5000	365985	370991	365725	57	371272	281	0	1	65
6.1.1	win	2020-04-16	16:24:52	1	1	1	USRTblock	1	USRT	68	600000	#ff0000	10pct	1	50pct	50pct	3000	371276	374291	370991	57	374579	288	0	1	66
6.1.1	win	2020-04-16	16:24:52	1	1	1	USRTblock	1	USRT	69	600000	#ff0000	10pct	1	50pct	50pct	5000	374583	379590	374291	57	379858	268	0	1	67
6.1.1	win	2020-04-16	16:24:52	1	1	1	USRTblock	1	USRT	70	600000	#ff0000	10pct	1	50pct	50pct	6000	379861	385873	379590	57	386134	261	0	1	68
6.1.1	win	2020-04-16	16:24:52	1	1	1	USRTblock	1	USRT	71	600000	#ff0000	10pct	1	50pct	50pct	6000	386138	392156	385873	57	392433	277	0	1	69
6.1.1	win	2020-04-16	16:24:52	1	1	1	USRTblock	1	USRT	72	600000	#ff0000	10pct	1	50pct	50pct	2000	392437	394455	392156	57	394829	374	0	1	70
6.1.1	win	2020-04-16	16:24:52	1	1	1	USRTblock	1	USRT	73	600000	#ff0000	10pct	1	50pct	50pct	2000	394832	396838	394455	57	397226	388	0	1	71
6.1.1	win	2020-04-16	16:24:52	1	1	1	USRTblock	1	USRT	74	600000	#ff0000	10pct	1	50pct	50pct	2000	397230	399238	396838	57	399558	320	0	1	72
6.1.1	win	2020-04-16	16:24:52	1	1	1	USRTblock	1	USRT	75	600000	#ff0000	10pct	1	50pct	50pct	5000	399561	404571	399238	57	404848	277	0	1	73
6.1.1	win	2020-04-16	16:24:52	1	1	1	USRTblock	1	USRT	76	600000	#ff0000	10pct	1	50pct	50pct	2000	404852	406870	404571	57	407222	352	0	1	74
6.1.1	win	2020-04-16	16:24:52	1	1	1	USRTblock	1	USRT	77	600000	#ff0000	10pct	1	50pct	50pct	5000	407225	412236	406870	57	412531	295	0	1	75
6.1.1	win	2020-04-16	16:24:52	1	1	1	USRTblock	1	USRT	78	600000	#ff0000	10pct	1	50pct	50pct	6000	412535	418553	412236	57	418893	340	0	1	76
6.1.1	win	2020-04-16	16:24:52	1	1	1	USRTblock	1	USRT	79	600000	#ff0000	10pct	1	50pct	50pct	3000	418896	421902	418553	57	422236	334	0	1	77
6.1.1	win	2020-04-16	16:24:52	1	1	1	USRTblock	1	USRT	80	600000	#ff0000	10pct	1	50pct	50pct	5000	422240	427252	421902	57	427537	285	0	1	78
6.1.1	win	2020-04-16	16:24:52	1	1	1	USRTblock	1	USRT	81	600000	#ff0000	10pct	1	50pct	50pct	8000	427541	435551	427252	57	435904	353	0	1	79
6.1.1	win	2020-04-16	16:24:52	1	1	1	USRTblock	1	USRT	82	600000	#ff0000	10pct	1	50pct	50pct	8000	435907	443917	435551	57	444224	307	0	1	80
6.1.1	win	2020-04-16	16:24:52	1	1	1	USRTblock	1	USRT	83	600000	#ff0000	10pct	1	50pct	50pct	7000	444227	451233	443917	57	451521	288	0	1	81
6.1.1	win	2020-04-16	16:24:52	1	1	1	USRTblock	1	USRT	84	600000	#ff0000	10pct	1	50pct	50pct	8000	451525	459532	451233	57	459889	357	0	1	82
6.1.1	win	2020-04-16	16:24:52	1	1	1	USRTblock	1	USRT	85	600000	#ff0000	10pct	1	50pct	50pct	2000	459892	461899	459532	57	462330	431	0	1	83
6.1.1	win	2020-04-16	16:24:52	1	1	1	USRTblock	1	USRT	86	600000	#ff0000	10pct	1	50pct	50pct	3000	462333	465348	461899	57	465717	369	0	1	84
6.1.1	win	2020-04-16	16:24:52	1	1	1	USRTblock	1	USRT	87	600000	#ff0000	10pct	1	50pct	50pct	2000	465720	467731	465348	57	468178	447	0	1	85
6.1.1	win	2020-04-16	16:24:52	1	1	1	USRTblock	1	USRT	88	600000	#ff0000	10pct	1	50pct	50pct	7000	468181	475198	467731	57	475459	261	0	1	86
6.1.1	win	2020-04-16	16:24:52	1	1	1	USRTblock	1	USRT	89	600000	#ff0000	10pct	1	50pct	50pct	7000	475462	482480	475198	57	482811	331	0	1	87
6.1.1	win	2020-04-16	16:24:52	1	1	1	USRTblock	1	USRT	90	600000	#ff0000	10pct	1	50pct	50pct	8000	482814	490830	482480	57	491104	274	0	1	88
6.1.1	win	2020-04-16	16:24:52	1	1	1	USRTblock	1	USRT	91	600000	#ff0000	10pct	1	50pct	50pct	8000	491108	499129	490830	57	499399	270	0	1	89
6.1.1	win	2020-04-16	16:24:52	1	1	1	USRTblock	1	USRT	92	600000	#ff0000	10pct	1	50pct	50pct	3000	499403	502411	499129	57	502692	281	0	1	90
6.1.1	win	2020-04-16	16:24:52	1	1	1	USRTblock	1	USRT	93	600000	#ff0000	10pct	1	50pct	50pct	7000	502696	509710	502411	57	510091	381	0	1	91
6.1.1	win	2020-04-16	16:24:52	1	1	1	USRTblock	1	USRT	94	600000	#ff0000	10pct	1	50pct	50pct	4000	510095	514110	509710	57	514445	335	0	1	92
6.1.1	win	2020-04-16	16:24:52	1	1	1	USRTblock	1	USRT	95	600000	#ff0000	10pct	1	50pct	50pct	8000	514448	522459	514110	57	522799	340	0	1	93
6.1.1	win	2020-04-16	16:24:52	1	1	1	USRTblock	1	USRT	96	600000	#ff0000	10pct	1	50pct	50pct	6000	522803	528825	522459	57	529195	370	0	1	94
6.1.1	win	2020-04-16	16:24:52	1	1	1	USRTblock	1	USRT	97	600000	#ff0000	10pct	1	50pct	50pct	2000	529198	531208	528825	57	531613	405	0	1	95
6.1.1	win	2020-04-16	16:24:52	1	1	1	USRTblock	1	USRT	98	600000	#ff0000	10pct	1	50pct	50pct	5000	531617	536624	531208	57	537050	426	0	1	96
6.1.1	win	2020-04-16	16:24:52	1	1	1	USRTblock	1	USRT	99	600000	#ff0000	10pct	1	50pct	50pct	6000	537054	543074	536624	57	543483	409	0	1	97
6.1.1	win	2020-04-16	16:24:52	1	1	1	USRTblock	1	USRT	100	600000	#ff0000	10pct	1	50pct	50pct	2000	543486	545507	543074	57	545955	448	0	1	98
6.1.1	win	2020-04-16	16:24:52	1	1	1	USRTblock	1	USRT	101	600000	#ff0000	10pct	1	50pct	50pct	2000	545959	547973	545507	57	548313	340	0	1	99
6.1.1	win	2020-04-16	16:24:52	1	1	1	USRTblock	1	USRT	102	600000	#ff0000	10pct	1	50pct	50pct	3000	548316	551323	547973	57	551616	293	0	1	100
6.1.1	win	2020-04-16	16:24:52	1	1	1	USRTblock	1	USRT	103	600000	#ff0000	10pct	1	50pct	50pct	6000	551620	557640	551323	57	557886	246	0	1	101
6.1.1	win	2020-04-16	16:24:52	1	1	1	USRTblock	1	USRT	104	600000	#ff0000	10pct	1	50pct	50pct	2000	557889	559905	557640	57	560292	387	0	1	102
6.1.1	win	2020-04-16	16:24:52	1	1	1	USRTblock	1	USRT	105	600000	#ff0000	10pct	1	50pct	50pct	7000	560296	567305	559905	57	567550	245	0	1	103
6.1.1	win	2020-04-16	16:24:52	1	1	1	USRTblock	1	USRT	106	600000	#ff0000	10pct	1	50pct	50pct	6000	567554	573570	567305	57	573875	305	0	1	104
6.1.1	win	2020-04-16	16:24:52	1	1	1	USRTblock	1	USRT	107	600000	#ff0000	10pct	1	50pct	50pct	2000	573879	575887	573570	57	576306	419	0	1	105
6.1.1	win	2020-04-16	16:24:52	1	1	1	USRTblock	1	USRT	108	600000	#ff0000	10pct	1	50pct	50pct	8000	576310	584320	575887	57	584628	308	0	1	106
6.1.1	win	2020-04-16	16:24:52	1	1	1	USRTblock	1	USRT	109	600000	#ff0000	10pct	1	50pct	50pct	8000	584632	592653	584320	57	592947	294	0	1	107
6.1.1	win	2020-04-16	16:24:52	1	1	1	USRTblock	1	USRT	110	600000	#ff0000	10pct	1	50pct	50pct	3000	592951	595968	592653	57	596257	289	0	1	108
6.1.1	win	2020-04-16	16:24:52	1	1	1	USRTblock	1	USRT	111	600000	#ff0000	10pct	1	50pct	50pct	2000	596260	598268	595968	57	598751	483	0	1	109
6.1.1	win	2020-04-16	16:24:52	1	1	1	USRTblock	1	USRT	112	600000	#ff0000	10pct	1	50pct	50pct	3000	598754	-1	598268	0	598857	0	1	2	110
