build	computer.platform	date	time	subject	group	sessionid	blockcode	blocknum	trialcode	trialnum	testduration	targetcolor	targetsize	fixed	targetx	targety	stiminterval	trialStart	shape.targetcircle.timestamp	lastCircleTimestamp	response	rt_elapsed	rt	EarlyResponse	countEarlyResponses	countResponses
6.1.1	win	2020-04-17	21:23:22	1	1	1	USRTblock	1	USRT	3	600000	#ff0000	10pct	1	50pct	50pct	5000	2897	7913	1993	57	8162	249	0	0	1
6.1.1	win	2020-04-17	21:23:22	1	1	1	USRTblock	1	USRT	4	600000	#ff0000	10pct	1	50pct	50pct	8000	8177	16195	7913	57	16428	233	0	0	2
6.1.1	win	2020-04-17	21:23:22	1	1	1	USRTblock	1	USRT	5	600000	#ff0000	10pct	1	50pct	50pct	5000	16432	21445	16195	57	21703	258	0	0	3
6.1.1	win	2020-04-17	21:23:22	1	1	1	USRTblock	1	USRT	6	600000	#ff0000	10pct	1	50pct	50pct	7000	21708	28727	21445	57	28969	242	0	0	4
6.1.1	win	2020-04-17	21:23:22	1	1	1	USRTblock	1	USRT	7	600000	#ff0000	10pct	1	50pct	50pct	3000	28973	31993	28727	57	32252	259	0	0	5
6.1.1	win	2020-04-17	21:23:22	1	1	1	USRTblock	1	USRT	8	600000	#ff0000	10pct	1	50pct	50pct	3000	32256	35276	31993	57	35554	278	0	0	6
6.1.1	win	2020-04-17	21:23:22	1	1	1	USRTblock	1	USRT	9	600000	#ff0000	10pct	1	50pct	50pct	8000	35557	43576	35276	57	43828	252	0	0	7
6.1.1	win	2020-04-17	21:23:22	1	1	1	USRTblock	1	USRT	10	600000	#ff0000	10pct	1	50pct	50pct	6000	43832	49842	43576	57	50127	285	0	0	8
6.1.1	win	2020-04-17	21:23:22	1	1	1	USRTblock	1	USRT	11	600000	#ff0000	10pct	1	50pct	50pct	3000	50130	53142	49842	57	53430	288	0	0	9
6.1.1	win	2020-04-17	21:23:22	1	1	1	USRTblock	1	USRT	12	600000	#ff0000	10pct	1	50pct	50pct	2000	53434	55441	53142	57	55761	320	0	0	10
6.1.1	win	2020-04-17	21:23:22	1	1	1	USRTblock	1	USRT	13	600000	#ff0000	10pct	1	50pct	50pct	2000	55765	57773	55441	57	58138	365	0	0	11
6.1.1	win	2020-04-17	21:23:22	1	1	1	USRTblock	1	USRT	14	600000	#ff0000	10pct	1	50pct	50pct	4000	58142	62157	57773	57	62434	277	0	0	12
6.1.1	win	2020-04-17	21:23:22	1	1	1	USRTblock	1	USRT	15	600000	#ff0000	10pct	1	50pct	50pct	4000	62438	66456	62157	57	66693	237	0	0	13
6.1.1	win	2020-04-17	21:23:22	1	1	1	USRTblock	1	USRT	16	600000	#ff0000	10pct	1	50pct	50pct	5000	66697	71706	66456	57	71956	250	0	0	14
6.1.1	win	2020-04-17	21:23:22	1	1	1	USRTblock	1	USRT	17	600000	#ff0000	10pct	1	50pct	50pct	3000	71959	74972	71706	57	75285	313	0	0	15
6.1.1	win	2020-04-17	21:23:22	1	1	1	USRTblock	1	USRT	18	600000	#ff0000	10pct	1	50pct	50pct	6000	75289	81305	74972	57	81620	315	0	0	16
6.1.1	win	2020-04-17	21:23:22	1	1	1	USRTblock	1	USRT	19	600000	#ff0000	10pct	1	50pct	50pct	2000	81624	83638	81305	57	83961	323	0	0	17
6.1.1	win	2020-04-17	21:23:22	1	1	1	USRTblock	1	USRT	20	600000	#ff0000	10pct	1	50pct	50pct	7000	83965	-1	83638	57	90217	0	1	1	18
6.1.1	win	2020-04-17	21:23:22	1	1	1	USRTblock	1	USRT	21	600000	#ff0000	10pct	1	50pct	50pct	4000	90221	94237	-1	57	94514	277	0	1	19
6.1.1	win	2020-04-17	21:23:22	1	1	1	USRTblock	1	USRT	22	600000	#ff0000	10pct	1	50pct	50pct	8000	94518	102536	94237	57	102875	339	0	1	20
6.1.1	win	2020-04-17	21:23:22	1	1	1	USRTblock	1	USRT	23	600000	#ff0000	10pct	1	50pct	50pct	6000	102879	108886	102536	57	109165	279	0	1	21
6.1.1	win	2020-04-17	21:23:22	1	1	1	USRTblock	1	USRT	24	600000	#ff0000	10pct	1	50pct	50pct	6000	109169	115186	108886	57	115463	277	0	1	22
6.1.1	win	2020-04-17	21:23:22	1	1	1	USRTblock	1	USRT	25	600000	#ff0000	10pct	1	50pct	50pct	7000	115466	122484	115186	57	122744	260	0	1	23
6.1.1	win	2020-04-17	21:23:22	1	1	1	USRTblock	1	USRT	26	600000	#ff0000	10pct	1	50pct	50pct	2000	122748	124768	122484	57	125092	324	0	1	24
6.1.1	win	2020-04-17	21:23:22	1	1	1	USRTblock	1	USRT	27	600000	#ff0000	10pct	1	50pct	50pct	3000	125095	128100	124768	57	128402	302	0	1	25
6.1.1	win	2020-04-17	21:23:22	1	1	1	USRTblock	1	USRT	28	600000	#ff0000	10pct	1	50pct	50pct	2000	128406	130416	128100	57	130684	268	0	1	26
6.1.1	win	2020-04-17	21:23:22	1	1	1	USRTblock	1	USRT	29	600000	#ff0000	10pct	1	50pct	50pct	8000	130688	138699	130416	57	138959	260	0	1	27
6.1.1	win	2020-04-17	21:23:22	1	1	1	USRTblock	1	USRT	30	600000	#ff0000	10pct	1	50pct	50pct	6000	138963	144982	138699	57	145251	269	0	1	28
6.1.1	win	2020-04-17	21:23:22	1	1	1	USRTblock	1	USRT	31	600000	#ff0000	10pct	1	50pct	50pct	5000	145255	150265	144982	57	150556	291	0	1	29
6.1.1	win	2020-04-17	21:23:22	1	1	1	USRTblock	1	USRT	32	600000	#ff0000	10pct	1	50pct	50pct	2000	150559	152565	150265	57	152864	299	0	1	30
6.1.1	win	2020-04-17	21:23:22	1	1	1	USRTblock	1	USRT	33	600000	#ff0000	10pct	1	50pct	50pct	8000	152868	160881	152565	57	161139	258	0	1	31
6.1.1	win	2020-04-17	21:23:22	1	1	1	USRTblock	1	USRT	34	600000	#ff0000	10pct	1	50pct	50pct	4000	161142	165147	160881	57	165485	338	0	1	32
6.1.1	win	2020-04-17	21:23:22	1	1	1	USRTblock	1	USRT	35	600000	#ff0000	10pct	1	50pct	50pct	3000	165489	168496	165147	57	168802	306	0	1	33
6.1.1	win	2020-04-17	21:23:22	1	1	1	USRTblock	1	USRT	36	600000	#ff0000	10pct	1	50pct	50pct	2000	168806	170813	168496	57	171199	386	0	1	34
6.1.1	win	2020-04-17	21:23:22	1	1	1	USRTblock	1	USRT	37	600000	#ff0000	10pct	1	50pct	50pct	3000	171204	174212	170813	57	174576	364	0	1	35
6.1.1	win	2020-04-17	21:23:22	1	1	1	USRTblock	1	USRT	38	600000	#ff0000	10pct	1	50pct	50pct	7000	174580	181595	174212	57	181893	298	0	1	36
6.1.1	win	2020-04-17	21:23:22	1	1	1	USRTblock	1	USRT	39	600000	#ff0000	10pct	1	50pct	50pct	3000	181897	184912	181595	57	185183	271	0	1	37
6.1.1	win	2020-04-17	21:23:22	1	1	1	USRTblock	1	USRT	40	600000	#ff0000	10pct	1	50pct	50pct	6000	185186	191194	184912	57	191445	251	0	1	38
6.1.1	win	2020-04-17	21:23:22	1	1	1	USRTblock	1	USRT	41	600000	#ff0000	10pct	1	50pct	50pct	2000	191448	193460	191194	57	193833	373	0	1	39
6.1.1	win	2020-04-17	21:23:22	1	1	1	USRTblock	1	USRT	42	600000	#ff0000	10pct	1	50pct	50pct	2000	193836	195843	193460	57	196125	282	0	1	40
6.1.1	win	2020-04-17	21:23:22	1	1	1	USRTblock	1	USRT	43	600000	#ff0000	10pct	1	50pct	50pct	2000	196129	198143	195843	57	198448	305	0	1	41
6.1.1	win	2020-04-17	21:23:22	1	1	1	USRTblock	1	USRT	44	600000	#ff0000	10pct	1	50pct	50pct	5000	198451	203460	198143	57	203758	298	0	1	42
6.1.1	win	2020-04-17	21:23:22	1	1	1	USRTblock	1	USRT	45	600000	#ff0000	10pct	1	50pct	50pct	5000	203761	208776	203460	57	209199	423	0	1	43
6.1.1	win	2020-04-17	21:23:22	1	1	1	USRTblock	1	USRT	46	600000	#ff0000	10pct	1	50pct	50pct	8000	209203	217209	208776	57	217557	348	0	1	44
6.1.1	win	2020-04-17	21:23:22	1	1	1	USRTblock	1	USRT	47	600000	#ff0000	10pct	1	50pct	50pct	4000	217560	221574	217209	57	221935	361	0	1	45
6.1.1	win	2020-04-17	21:23:22	1	1	1	USRTblock	1	USRT	48	600000	#ff0000	10pct	1	50pct	50pct	5000	221941	226957	221574	57	227306	349	0	1	46
6.1.1	win	2020-04-17	21:23:22	1	1	1	USRTblock	1	USRT	49	600000	#ff0000	10pct	1	50pct	50pct	8000	227311	235324	226957	57	235597	273	0	1	47
6.1.1	win	2020-04-17	21:23:22	1	1	1	USRTblock	1	USRT	50	600000	#ff0000	10pct	1	50pct	50pct	4000	235601	239606	235324	57	239932	326	0	1	48
6.1.1	win	2020-04-17	21:23:22	1	1	1	USRTblock	1	USRT	51	600000	#ff0000	10pct	1	50pct	50pct	6000	239935	245955	239606	57	246209	254	0	1	49
6.1.1	win	2020-04-17	21:23:22	1	1	1	USRTblock	1	USRT	52	600000	#ff0000	10pct	1	50pct	50pct	4000	246212	250221	245955	57	250478	257	0	1	50
6.1.1	win	2020-04-17	21:23:22	1	1	1	USRTblock	1	USRT	53	600000	#ff0000	10pct	1	50pct	50pct	7000	250482	257488	250221	57	257799	311	0	1	51
6.1.1	win	2020-04-17	21:23:22	1	1	1	USRTblock	1	USRT	54	600000	#ff0000	10pct	1	50pct	50pct	6000	257802	263820	257488	57	264114	294	0	1	52
6.1.1	win	2020-04-17	21:23:22	1	1	1	USRTblock	1	USRT	55	600000	#ff0000	10pct	1	50pct	50pct	7000	264117	271136	263820	57	271372	236	0	1	53
6.1.1	win	2020-04-17	21:23:22	1	1	1	USRTblock	1	USRT	56	600000	#ff0000	10pct	1	50pct	50pct	8000	271376	279386	271136	57	279752	366	0	1	54
6.1.1	win	2020-04-17	21:23:22	1	1	1	USRTblock	1	USRT	57	600000	#ff0000	10pct	1	50pct	50pct	6000	279757	285768	279386	57	286012	244	0	1	55
6.1.1	win	2020-04-17	21:23:22	1	1	1	USRTblock	1	USRT	58	600000	#ff0000	10pct	1	50pct	50pct	3000	286016	289034	285768	57	289424	390	0	1	56
6.1.1	win	2020-04-17	21:23:22	1	1	1	USRTblock	1	USRT	59	600000	#ff0000	10pct	1	50pct	50pct	8000	289427	297434	289034	57	297727	293	0	1	57
6.1.1	win	2020-04-17	21:23:22	1	1	1	USRTblock	1	USRT	60	600000	#ff0000	10pct	1	50pct	50pct	6000	297731	303750	297434	57	304091	341	0	1	58
6.1.1	win	2020-04-17	21:23:22	1	1	1	USRTblock	1	USRT	61	600000	#ff0000	10pct	1	50pct	50pct	5000	304095	309116	303750	57	309574	458	0	1	59
6.1.1	win	2020-04-17	21:23:22	1	1	1	USRTblock	1	USRT	62	600000	#ff0000	10pct	1	50pct	50pct	2000	309578	311598	309116	57	311989	391	0	1	60
6.1.1	win	2020-04-17	21:23:22	1	1	1	USRTblock	1	USRT	63	600000	#ff0000	10pct	1	50pct	50pct	4000	311992	315998	311598	57	316282	284	0	1	61
6.1.1	win	2020-04-17	21:23:22	1	1	1	USRTblock	1	USRT	64	600000	#ff0000	10pct	1	50pct	50pct	8000	316286	324298	315998	57	324617	319	0	1	62
6.1.1	win	2020-04-17	21:23:22	1	1	1	USRTblock	1	USRT	65	600000	#ff0000	10pct	1	50pct	50pct	5000	324620	329630	324298	57	329935	305	0	1	63
6.1.1	win	2020-04-17	21:23:22	1	1	1	USRTblock	1	USRT	66	600000	#ff0000	10pct	1	50pct	50pct	6000	329938	335946	329630	57	336259	313	0	1	64
6.1.1	win	2020-04-17	21:23:22	1	1	1	USRTblock	1	USRT	67	600000	#ff0000	10pct	1	50pct	50pct	3000	336262	339279	335946	57	339565	286	0	1	65
6.1.1	win	2020-04-17	21:23:22	1	1	1	USRTblock	1	USRT	68	600000	#ff0000	10pct	1	50pct	50pct	5000	339569	344579	339279	57	344838	259	0	1	66
6.1.1	win	2020-04-17	21:23:22	1	1	1	USRTblock	1	USRT	69	600000	#ff0000	10pct	1	50pct	50pct	3000	344844	347861	344579	57	348093	232	0	1	67
6.1.1	win	2020-04-17	21:23:22	1	1	1	USRTblock	1	USRT	70	600000	#ff0000	10pct	1	50pct	50pct	7000	348096	355111	347861	57	355336	225	0	1	68
6.1.1	win	2020-04-17	21:23:22	1	1	1	USRTblock	1	USRT	71	600000	#ff0000	10pct	1	50pct	50pct	8000	355340	363360	355111	57	363619	259	0	1	69
6.1.1	win	2020-04-17	21:23:22	1	1	1	USRTblock	1	USRT	72	600000	#ff0000	10pct	1	50pct	50pct	2000	363622	365643	363360	57	366094	451	0	1	70
6.1.1	win	2020-04-17	21:23:22	1	1	1	USRTblock	1	USRT	73	600000	#ff0000	10pct	1	50pct	50pct	4000	366098	370110	365643	57	370407	297	0	1	71
6.1.1	win	2020-04-17	21:23:22	1	1	1	USRTblock	1	USRT	74	600000	#ff0000	10pct	1	50pct	50pct	3000	370410	373425	370110	57	373863	438	0	1	72
6.1.1	win	2020-04-17	21:23:22	1	1	1	USRTblock	1	USRT	75	600000	#ff0000	10pct	1	50pct	50pct	6000	373866	379875	373425	57	380161	286	0	1	73
6.1.1	win	2020-04-17	21:23:22	1	1	1	USRTblock	1	USRT	76	600000	#ff0000	10pct	1	50pct	50pct	3000	380164	383174	379875	57	383533	359	0	1	74
6.1.1	win	2020-04-17	21:23:22	1	1	1	USRTblock	1	USRT	77	600000	#ff0000	10pct	1	50pct	50pct	5000	383536	388541	383174	57	388836	295	0	1	75
6.1.1	win	2020-04-17	21:23:22	1	1	1	USRTblock	1	USRT	78	600000	#ff0000	10pct	1	50pct	50pct	3000	388840	391857	388541	57	392147	290	0	1	76
6.1.1	win	2020-04-17	21:23:22	1	1	1	USRTblock	1	USRT	79	600000	#ff0000	10pct	1	50pct	50pct	3000	392151	395157	391857	57	395376	219	0	1	77
6.1.1	win	2020-04-17	21:23:22	1	1	1	USRTblock	1	USRT	80	600000	#ff0000	10pct	1	50pct	50pct	5000	395380	400390	395157	57	400668	278	0	1	78
6.1.1	win	2020-04-17	21:23:22	1	1	1	USRTblock	1	USRT	81	600000	#ff0000	10pct	1	50pct	50pct	6000	400671	406689	400390	57	407003	314	0	1	79
6.1.1	win	2020-04-17	21:23:22	1	1	1	USRTblock	1	USRT	82	600000	#ff0000	10pct	1	50pct	50pct	2000	407006	409022	406689	57	409570	548	0	1	80
6.1.1	win	2020-04-17	21:23:22	1	1	1	USRTblock	1	USRT	83	600000	#ff0000	10pct	1	50pct	50pct	5000	409573	414588	409022	57	414824	236	0	1	81
6.1.1	win	2020-04-17	21:23:22	1	1	1	USRTblock	1	USRT	84	600000	#ff0000	10pct	1	50pct	50pct	7000	414827	-1	414588	57	419571	0	1	2	82
6.1.1	win	2020-04-17	21:23:22	1	1	1	USRTblock	1	USRT	85	600000	#ff0000	10pct	1	50pct	50pct	2000	419574	421588	-1	57	421971	383	0	2	83
6.1.1	win	2020-04-17	21:23:22	1	1	1	USRTblock	1	USRT	86	600000	#ff0000	10pct	1	50pct	50pct	4000	421974	425988	421588	57	426328	340	0	2	84
6.1.1	win	2020-04-17	21:23:22	1	1	1	USRTblock	1	USRT	87	600000	#ff0000	10pct	1	50pct	50pct	3000	426331	429337	425988	57	429599	262	0	2	85
6.1.1	win	2020-04-17	21:23:22	1	1	1	USRTblock	1	USRT	88	600000	#ff0000	10pct	1	50pct	50pct	7000	429603	436620	429337	57	436866	246	0	2	86
6.1.1	win	2020-04-17	21:23:22	1	1	1	USRTblock	1	USRT	89	600000	#ff0000	10pct	1	50pct	50pct	4000	436870	440885	436620	57	441122	237	0	2	87
6.1.1	win	2020-04-17	21:23:22	1	1	1	USRTblock	1	USRT	90	600000	#ff0000	10pct	1	50pct	50pct	2000	441126	443135	440885	57	443441	306	0	2	88
6.1.1	win	2020-04-17	21:23:22	1	1	1	USRTblock	1	USRT	91	600000	#ff0000	10pct	1	50pct	50pct	4000	443445	447451	443135	57	447807	356	0	2	89
6.1.1	win	2020-04-17	21:23:22	1	1	1	USRTblock	1	USRT	92	600000	#ff0000	10pct	1	50pct	50pct	6000	447810	453818	447451	57	454091	273	0	2	90
6.1.1	win	2020-04-17	21:23:22	1	1	1	USRTblock	1	USRT	93	600000	#ff0000	10pct	1	50pct	50pct	6000	454095	460101	453818	57	460439	338	0	2	91
6.1.1	win	2020-04-17	21:23:22	1	1	1	USRTblock	1	USRT	94	600000	#ff0000	10pct	1	50pct	50pct	4000	460443	464450	460101	57	464708	258	0	2	92
6.1.1	win	2020-04-17	21:23:22	1	1	1	USRTblock	1	USRT	95	600000	#ff0000	10pct	1	50pct	50pct	5000	464712	469716	464450	57	469975	259	0	2	93
6.1.1	win	2020-04-17	21:23:22	1	1	1	USRTblock	1	USRT	96	600000	#ff0000	10pct	1	50pct	50pct	8000	469979	477999	469716	57	478223	224	0	2	94
6.1.1	win	2020-04-17	21:23:22	1	1	1	USRTblock	1	USRT	97	600000	#ff0000	10pct	1	50pct	50pct	5000	478227	483232	477999	57	483486	254	0	2	95
6.1.1	win	2020-04-17	21:23:22	1	1	1	USRTblock	1	USRT	98	600000	#ff0000	10pct	1	50pct	50pct	2000	483489	485498	483232	57	486074	576	0	2	96
6.1.1	win	2020-04-17	21:23:22	1	1	1	USRTblock	1	USRT	99	600000	#ff0000	10pct	1	50pct	50pct	8000	486077	494099	485498	57	494456	357	0	2	97
6.1.1	win	2020-04-17	21:23:22	1	1	1	USRTblock	1	USRT	100	600000	#ff0000	10pct	1	50pct	50pct	8000	494459	502480	494099	57	502815	335	0	2	98
6.1.1	win	2020-04-17	21:23:22	1	1	1	USRTblock	1	USRT	101	600000	#ff0000	10pct	1	50pct	50pct	7000	502819	509829	502480	57	510168	339	0	2	99
6.1.1	win	2020-04-17	21:23:22	1	1	1	USRTblock	1	USRT	102	600000	#ff0000	10pct	1	50pct	50pct	8000	510172	518178	509829	57	518479	301	0	2	100
6.1.1	win	2020-04-17	21:23:22	1	1	1	USRTblock	1	USRT	103	600000	#ff0000	10pct	1	50pct	50pct	7000	518482	525494	518178	57	525846	352	0	2	101
6.1.1	win	2020-04-17	21:23:22	1	1	1	USRTblock	1	USRT	104	600000	#ff0000	10pct	1	50pct	50pct	8000	525849	533860	525494	57	534135	275	0	2	102
6.1.1	win	2020-04-17	21:23:22	1	1	1	USRTblock	1	USRT	105	600000	#ff0000	10pct	1	50pct	50pct	4000	534139	538159	533860	57	538428	269	0	2	103
6.1.1	win	2020-04-17	21:23:22	1	1	1	USRTblock	1	USRT	106	600000	#ff0000	10pct	1	50pct	50pct	5000	538431	543442	538159	57	543711	269	0	2	104
6.1.1	win	2020-04-17	21:23:22	1	1	1	USRTblock	1	USRT	107	600000	#ff0000	10pct	1	50pct	50pct	2000	543714	545725	543442	57	546064	339	0	2	105
6.1.1	win	2020-04-17	21:23:22	1	1	1	USRTblock	1	USRT	108	600000	#ff0000	10pct	1	50pct	50pct	8000	546068	554075	545725	57	554334	259	0	2	106
6.1.1	win	2020-04-17	21:23:22	1	1	1	USRTblock	1	USRT	109	600000	#ff0000	10pct	1	50pct	50pct	3000	554337	557357	554075	57	557838	481	0	2	107
6.1.1	win	2020-04-17	21:23:22	1	1	1	USRTblock	1	USRT	110	600000	#ff0000	10pct	1	50pct	50pct	7000	557842	-1	557357	57	560872	0	1	3	108
6.1.1	win	2020-04-17	21:23:22	1	1	1	USRTblock	1	USRT	111	600000	#ff0000	10pct	1	50pct	50pct	7000	560875	567890	-1	57	568200	310	0	3	109
6.1.1	win	2020-04-17	21:23:22	1	1	1	USRTblock	1	USRT	112	600000	#ff0000	10pct	1	50pct	50pct	8000	568204	576223	567890	57	576488	265	0	3	110
6.1.1	win	2020-04-17	21:23:22	1	1	1	USRTblock	1	USRT	113	600000	#ff0000	10pct	1	50pct	50pct	3000	576492	579505	576223	57	579862	357	0	3	111
6.1.1	win	2020-04-17	21:23:22	1	1	1	USRTblock	1	USRT	114	600000	#ff0000	10pct	1	50pct	50pct	8000	579865	587871	579505	57	588155	284	0	3	112
6.1.1	win	2020-04-17	21:23:22	1	1	1	USRTblock	1	USRT	115	600000	#ff0000	10pct	1	50pct	50pct	2000	588159	590171	587871	57	590495	324	0	3	113
6.1.1	win	2020-04-17	21:23:22	1	1	1	USRTblock	1	USRT	116	600000	#ff0000	10pct	1	50pct	50pct	2000	590498	592504	590171	57	592864	360	0	3	114
6.1.1	win	2020-04-17	21:23:22	1	1	1	USRTblock	1	USRT	117	600000	#ff0000	10pct	1	50pct	50pct	5000	592868	597886	592504	57	598367	481	0	3	115
6.1.1	win	2020-04-17	21:23:22	1	1	1	USRTblock	1	USRT	118	600000	#ff0000	10pct	1	50pct	50pct	3000	598370	-1	597886	0	598481	0	1	4	116
