build	computer.platform	date	time	subject	group	sessionid	blockcode	blocknum	trialcode	trialnum	testduration	targetcolor	targetsize	fixed	targetx	targety	stiminterval	trialStart	shape.targetcircle.timestamp	lastCircleTimestamp	response	rt_elapsed	rt	EarlyResponse	countEarlyResponses	countResponses
6.1.1	win	2020-04-16	13:20:42	1	1	1	USRTblock	1	USRT	3	600000	#ff0000	10pct	1	50pct	50pct	7000	3129	10140	2404	57	10382	242	0	0	1
6.1.1	win	2020-04-16	13:20:42	1	1	1	USRTblock	1	USRT	4	600000	#ff0000	10pct	1	50pct	50pct	2000	10395	12406	10140	57	12718	312	0	0	2
6.1.1	win	2020-04-16	13:20:42	1	1	1	USRTblock	1	USRT	5	600000	#ff0000	10pct	1	50pct	50pct	2000	12722	14740	12406	57	15103	363	0	0	3
6.1.1	win	2020-04-16	13:20:42	1	1	1	USRTblock	1	USRT	6	600000	#ff0000	10pct	1	50pct	50pct	8000	15106	23122	14740	57	23411	289	0	0	4
6.1.1	win	2020-04-16	13:20:42	1	1	1	USRTblock	1	USRT	7	600000	#ff0000	10pct	1	50pct	50pct	7000	23415	30422	23122	57	30753	331	0	0	5
6.1.1	win	2020-04-16	13:20:42	1	1	1	USRTblock	1	USRT	8	600000	#ff0000	10pct	1	50pct	50pct	5000	30756	35771	30422	57	36188	417	0	0	6
6.1.1	win	2020-04-16	13:20:42	1	1	1	USRTblock	1	USRT	9	600000	#ff0000	10pct	1	50pct	50pct	6000	36192	42204	35771	57	42525	321	0	0	7
6.1.1	win	2020-04-16	13:20:42	1	1	1	USRTblock	1	USRT	10	600000	#ff0000	10pct	1	50pct	50pct	6000	42528	48536	42204	57	48830	294	0	0	8
6.1.1	win	2020-04-16	13:20:42	1	1	1	USRTblock	1	USRT	11	600000	#ff0000	10pct	1	50pct	50pct	8000	48833	56853	48536	57	57126	273	0	0	9
6.1.1	win	2020-04-16	13:20:42	1	1	1	USRTblock	1	USRT	12	600000	#ff0000	10pct	1	50pct	50pct	7000	57130	64135	56853	57	64623	488	0	0	10
6.1.1	win	2020-04-16	13:20:42	1	1	1	USRTblock	1	USRT	13	600000	#ff0000	10pct	1	50pct	50pct	2000	64626	66634	64135	57	66915	281	0	0	11
6.1.1	win	2020-04-16	13:20:42	1	1	1	USRTblock	1	USRT	14	600000	#ff0000	10pct	1	50pct	50pct	6000	66919	72934	66634	57	73365	431	0	0	12
6.1.1	win	2020-04-16	13:20:42	1	1	1	USRTblock	1	USRT	15	600000	#ff0000	10pct	1	50pct	50pct	7000	73369	80384	72934	57	80688	304	0	0	13
6.1.1	win	2020-04-16	13:20:42	1	1	1	USRTblock	1	USRT	16	600000	#ff0000	10pct	1	50pct	50pct	4000	80693	84716	80384	57	85045	329	0	0	14
6.1.1	win	2020-04-16	13:20:42	1	1	1	USRTblock	1	USRT	17	600000	#ff0000	10pct	1	50pct	50pct	4000	85049	89065	84716	57	89431	366	0	0	15
6.1.1	win	2020-04-16	13:20:42	1	1	1	USRTblock	1	USRT	18	600000	#ff0000	10pct	1	50pct	50pct	6000	89434	95448	89065	57	95683	235	0	0	16
6.1.1	win	2020-04-16	13:20:42	1	1	1	USRTblock	1	USRT	19	600000	#ff0000	10pct	1	50pct	50pct	8000	95687	103698	95448	57	103948	250	0	0	17
6.1.1	win	2020-04-16	13:20:42	1	1	1	USRTblock	1	USRT	20	600000	#ff0000	10pct	1	50pct	50pct	2000	103952	105963	103698	57	106284	321	0	0	18
6.1.1	win	2020-04-16	13:20:42	1	1	1	USRTblock	1	USRT	21	600000	#ff0000	10pct	1	50pct	50pct	2000	106287	108297	105963	57	108655	358	0	0	19
6.1.1	win	2020-04-16	13:20:42	1	1	1	USRTblock	1	USRT	22	600000	#ff0000	10pct	1	50pct	50pct	6000	108659	114680	108297	57	114925	245	0	0	20
6.1.1	win	2020-04-16	13:20:42	1	1	1	USRTblock	1	USRT	23	600000	#ff0000	10pct	1	50pct	50pct	5000	114928	119946	114680	57	120264	318	0	0	21
6.1.1	win	2020-04-16	13:20:42	1	1	1	USRTblock	1	USRT	24	600000	#ff0000	10pct	1	50pct	50pct	3000	120267	123278	119946	57	123703	425	0	0	22
6.1.1	win	2020-04-16	13:20:42	1	1	1	USRTblock	1	USRT	25	600000	#ff0000	10pct	1	50pct	50pct	2000	123706	125711	123278	57	125991	280	0	0	23
6.1.1	win	2020-04-16	13:20:42	1	1	1	USRTblock	1	USRT	26	600000	#ff0000	10pct	1	50pct	50pct	6000	125994	132011	125711	57	132347	336	0	0	24
6.1.1	win	2020-04-16	13:20:42	1	1	1	USRTblock	1	USRT	27	600000	#ff0000	10pct	1	50pct	50pct	8000	132350	140361	132011	57	140681	320	0	0	25
6.1.1	win	2020-04-16	13:20:42	1	1	1	USRTblock	1	USRT	28	600000	#ff0000	10pct	1	50pct	50pct	7000	140685	147693	140361	57	148079	386	0	0	26
6.1.1	win	2020-04-16	13:20:42	1	1	1	USRTblock	1	USRT	29	600000	#ff0000	10pct	1	50pct	50pct	8000	148083	156093	147693	57	156503	410	0	0	27
6.1.1	win	2020-04-16	13:20:42	1	1	1	USRTblock	1	USRT	30	600000	#ff0000	10pct	1	50pct	50pct	4000	156506	160525	156093	57	160914	389	0	0	28
6.1.1	win	2020-04-16	13:20:42	1	1	1	USRTblock	1	USRT	31	600000	#ff0000	10pct	1	50pct	50pct	5000	160918	165924	160525	57	166333	409	0	0	29
6.1.1	win	2020-04-16	13:20:42	1	1	1	USRTblock	1	USRT	32	600000	#ff0000	10pct	1	50pct	50pct	5000	166336	171357	165924	57	171655	298	0	0	30
6.1.1	win	2020-04-16	13:20:42	1	1	1	USRTblock	1	USRT	33	600000	#ff0000	10pct	1	50pct	50pct	7000	171659	-1	171357	57	174403	0	1	1	31
6.1.1	win	2020-04-16	13:20:42	1	1	1	USRTblock	1	USRT	34	600000	#ff0000	10pct	1	50pct	50pct	8000	174407	182423	-1	57	182851	428	0	1	32
6.1.1	win	2020-04-16	13:20:42	1	1	1	USRTblock	1	USRT	35	600000	#ff0000	10pct	1	50pct	50pct	4000	182855	186872	182423	57	187174	302	0	1	33
6.1.1	win	2020-04-16	13:20:42	1	1	1	USRTblock	1	USRT	36	600000	#ff0000	10pct	1	50pct	50pct	4000	187178	191188	186872	57	191508	320	0	1	34
6.1.1	win	2020-04-16	13:20:42	1	1	1	USRTblock	1	USRT	37	600000	#ff0000	10pct	1	50pct	50pct	8000	191512	-1	191188	57	196409	0	1	2	35
6.1.1	win	2020-04-16	13:20:42	1	1	1	USRTblock	1	USRT	38	600000	#ff0000	10pct	1	50pct	50pct	8000	196412	204421	-1	57	204700	279	0	2	36
6.1.1	win	2020-04-16	13:20:42	1	1	1	USRTblock	1	USRT	39	600000	#ff0000	10pct	1	50pct	50pct	8000	204703	212720	204421	57	212955	235	0	2	37
6.1.1	win	2020-04-16	13:20:42	1	1	1	USRTblock	1	USRT	40	600000	#ff0000	10pct	1	50pct	50pct	2000	212958	214969	212720	57	215306	337	0	2	38
6.1.1	win	2020-04-16	13:20:42	1	1	1	USRTblock	1	USRT	41	600000	#ff0000	10pct	1	50pct	50pct	7000	215310	222319	214969	57	222580	261	0	2	39
6.1.1	win	2020-04-16	13:20:42	1	1	1	USRTblock	1	USRT	42	600000	#ff0000	10pct	1	50pct	50pct	2000	222583	224602	222319	57	224933	331	0	2	40
6.1.1	win	2020-04-16	13:20:42	1	1	1	USRTblock	1	USRT	43	600000	#ff0000	10pct	1	50pct	50pct	5000	224938	229952	224602	57	230255	303	0	2	41
6.1.1	win	2020-04-16	13:20:42	1	1	1	USRTblock	1	USRT	44	600000	#ff0000	10pct	1	50pct	50pct	3000	230259	233267	229952	57	233561	294	0	2	42
6.1.1	win	2020-04-16	13:20:42	1	1	1	USRTblock	1	USRT	45	600000	#ff0000	10pct	1	50pct	50pct	8000	233565	241584	233267	57	241891	307	0	2	43
6.1.1	win	2020-04-16	13:20:42	1	1	1	USRTblock	1	USRT	46	600000	#ff0000	10pct	1	50pct	50pct	7000	241894	248899	241584	57	249177	278	0	2	44
6.1.1	win	2020-04-16	13:20:42	1	1	1	USRTblock	1	USRT	47	600000	#ff0000	10pct	1	50pct	50pct	8000	249181	257199	248899	57	257492	293	0	2	45
6.1.1	win	2020-04-16	13:20:42	1	1	1	USRTblock	1	USRT	48	600000	#ff0000	10pct	1	50pct	50pct	4000	257496	261515	257199	57	261869	354	0	2	46
6.1.1	win	2020-04-16	13:20:42	1	1	1	USRTblock	1	USRT	49	600000	#ff0000	10pct	1	50pct	50pct	7000	261873	268881	261515	57	269192	311	0	2	47
6.1.1	win	2020-04-16	13:20:42	1	1	1	USRTblock	1	USRT	50	600000	#ff0000	10pct	1	50pct	50pct	7000	269196	276213	268881	57	276805	592	0	2	48
6.1.1	win	2020-04-16	13:20:42	1	1	1	USRTblock	1	USRT	51	600000	#ff0000	10pct	1	50pct	50pct	2000	276809	278829	276213	57	279166	337	0	2	49
6.1.1	win	2020-04-16	13:20:42	1	1	1	USRTblock	1	USRT	52	600000	#ff0000	10pct	1	50pct	50pct	5000	279170	284179	278829	57	284567	388	0	2	50
6.1.1	win	2020-04-16	13:20:42	1	1	1	USRTblock	1	USRT	53	600000	#ff0000	10pct	1	50pct	50pct	2000	284570	286578	284179	57	286915	337	0	2	51
6.1.1	win	2020-04-16	13:20:42	1	1	1	USRTblock	1	USRT	54	600000	#ff0000	10pct	1	50pct	50pct	7000	286919	293929	286578	57	294188	259	0	2	52
6.1.1	win	2020-04-16	13:20:42	1	1	1	USRTblock	1	USRT	55	600000	#ff0000	10pct	1	50pct	50pct	7000	294191	301211	293929	57	301556	345	0	2	53
6.1.1	win	2020-04-16	13:20:42	1	1	1	USRTblock	1	USRT	56	600000	#ff0000	10pct	1	50pct	50pct	6000	301559	307577	301211	57	307974	397	0	2	54
6.1.1	win	2020-04-16	13:20:42	1	1	1	USRTblock	1	USRT	57	600000	#ff0000	10pct	1	50pct	50pct	7000	307978	314993	307577	57	315286	293	0	2	55
6.1.1	win	2020-04-16	13:20:42	1	1	1	USRTblock	1	USRT	58	600000	#ff0000	10pct	1	50pct	50pct	2000	315290	317309	314993	57	317710	401	0	2	56
6.1.1	win	2020-04-16	13:20:42	1	1	1	USRTblock	1	USRT	59	600000	#ff0000	10pct	1	50pct	50pct	7000	317714	324725	317309	57	325029	304	0	2	57
6.1.1	win	2020-04-16	13:20:42	1	1	1	USRTblock	1	USRT	60	600000	#ff0000	10pct	1	50pct	50pct	3000	325033	328042	324725	57	328376	334	0	2	58
6.1.1	win	2020-04-16	13:20:42	1	1	1	USRTblock	1	USRT	61	600000	#ff0000	10pct	1	50pct	50pct	7000	328381	335391	328042	57	335658	267	0	2	59
6.1.1	win	2020-04-16	13:20:42	1	1	1	USRTblock	1	USRT	62	600000	#ff0000	10pct	1	50pct	50pct	5000	335662	340673	335391	57	340991	318	0	2	60
6.1.1	win	2020-04-16	13:20:42	1	1	1	USRTblock	1	USRT	63	600000	#ff0000	10pct	1	50pct	50pct	4000	340995	345007	340673	57	345418	411	0	2	61
6.1.1	win	2020-04-16	13:20:42	1	1	1	USRTblock	1	USRT	64	600000	#ff0000	10pct	1	50pct	50pct	8000	345421	353439	345007	57	353688	249	0	2	62
6.1.1	win	2020-04-16	13:20:42	1	1	1	USRTblock	1	USRT	65	600000	#ff0000	10pct	1	50pct	50pct	5000	353691	358705	353439	57	359031	326	0	2	63
6.1.1	win	2020-04-16	13:20:42	1	1	1	USRTblock	1	USRT	66	600000	#ff0000	10pct	1	50pct	50pct	4000	359034	363054	358705	57	363373	319	0	2	64
6.1.1	win	2020-04-16	13:20:42	1	1	1	USRTblock	1	USRT	67	600000	#ff0000	10pct	1	50pct	50pct	4000	363377	367388	363054	57	367801	413	0	2	65
6.1.1	win	2020-04-16	13:20:42	1	1	1	USRTblock	1	USRT	68	600000	#ff0000	10pct	1	50pct	50pct	4000	367804	371821	367388	57	372146	325	0	2	66
6.1.1	win	2020-04-16	13:20:42	1	1	1	USRTblock	1	USRT	69	600000	#ff0000	10pct	1	50pct	50pct	3000	372150	375170	371821	57	375448	278	0	2	67
6.1.1	win	2020-04-16	13:20:42	1	1	1	USRTblock	1	USRT	70	600000	#ff0000	10pct	1	50pct	50pct	4000	375451	379469	375170	57	379845	376	0	2	68
6.1.1	win	2020-04-16	13:20:42	1	1	1	USRTblock	1	USRT	71	600000	#ff0000	10pct	1	50pct	50pct	5000	379849	384869	379469	57	385168	299	0	2	69
6.1.1	win	2020-04-16	13:20:42	1	1	1	USRTblock	1	USRT	72	600000	#ff0000	10pct	1	50pct	50pct	3000	385171	388186	384869	57	388494	308	0	2	70
6.1.1	win	2020-04-16	13:20:42	1	1	1	USRTblock	1	USRT	73	600000	#ff0000	10pct	1	50pct	50pct	4000	388499	392518	388186	57	392787	269	0	2	71
6.1.1	win	2020-04-16	13:20:42	1	1	1	USRTblock	1	USRT	74	600000	#ff0000	10pct	1	50pct	50pct	3000	392790	395801	392518	57	396073	272	0	2	72
6.1.1	win	2020-04-16	13:20:42	1	1	1	USRTblock	1	USRT	75	600000	#ff0000	10pct	1	50pct	50pct	3000	396076	399085	395801	57	399373	288	0	2	73
6.1.1	win	2020-04-16	13:20:42	1	1	1	USRTblock	1	USRT	76	600000	#ff0000	10pct	1	50pct	50pct	6000	399376	405384	399085	57	405671	287	0	2	74
6.1.1	win	2020-04-16	13:20:42	1	1	1	USRTblock	1	USRT	77	600000	#ff0000	10pct	1	50pct	50pct	6000	405674	-1	405384	57	410908	0	1	3	75
6.1.1	win	2020-04-16	13:20:42	1	1	1	USRTblock	1	USRT	78	600000	#ff0000	10pct	1	50pct	50pct	8000	410912	418933	-1	57	419194	261	0	3	76
6.1.1	win	2020-04-16	13:20:42	1	1	1	USRTblock	1	USRT	79	600000	#ff0000	10pct	1	50pct	50pct	2000	419198	421215	418933	57	421520	305	0	3	77
6.1.1	win	2020-04-16	13:20:42	1	1	1	USRTblock	1	USRT	80	600000	#ff0000	10pct	1	50pct	50pct	7000	421523	428532	421215	57	428824	292	0	3	78
6.1.1	win	2020-04-16	13:20:42	1	1	1	USRTblock	1	USRT	81	600000	#ff0000	10pct	1	50pct	50pct	6000	428828	434847	428532	57	435136	289	0	3	79
6.1.1	win	2020-04-16	13:20:42	1	1	1	USRTblock	1	USRT	82	600000	#ff0000	10pct	1	50pct	50pct	7000	435140	442147	434847	57	442461	314	0	3	80
6.1.1	win	2020-04-16	13:20:42	1	1	1	USRTblock	1	USRT	83	600000	#ff0000	10pct	1	50pct	50pct	6000	442465	448479	442147	57	448780	301	0	3	81
6.1.1	win	2020-04-16	13:20:42	1	1	1	USRTblock	1	USRT	84	600000	#ff0000	10pct	1	50pct	50pct	3000	448784	451795	448479	57	452208	413	0	3	82
6.1.1	win	2020-04-16	13:20:42	1	1	1	USRTblock	1	USRT	85	600000	#ff0000	10pct	1	50pct	50pct	5000	452211	457229	451795	57	457773	544	0	3	83
6.1.1	win	2020-04-16	13:20:42	1	1	1	USRTblock	1	USRT	86	600000	#ff0000	10pct	1	50pct	50pct	6000	457777	463794	457229	57	464226	432	0	3	84
6.1.1	win	2020-04-16	13:20:42	1	1	1	USRTblock	1	USRT	87	600000	#ff0000	10pct	1	50pct	50pct	3000	464229	467244	463794	57	467632	388	0	3	85
6.1.1	win	2020-04-16	13:20:42	1	1	1	USRTblock	1	USRT	88	600000	#ff0000	10pct	1	50pct	50pct	8000	467635	475643	467244	57	475981	338	0	3	86
6.1.1	win	2020-04-16	13:20:42	1	1	1	USRTblock	1	USRT	89	600000	#ff0000	10pct	1	50pct	50pct	4000	475985	479993	475643	57	480230	237	0	3	87
6.1.1	win	2020-04-16	13:20:42	1	1	1	USRTblock	1	USRT	90	600000	#ff0000	10pct	1	50pct	50pct	6000	480234	486242	479993	57	486493	251	0	3	88
6.1.1	win	2020-04-16	13:20:42	1	1	1	USRTblock	1	USRT	91	600000	#ff0000	10pct	1	50pct	50pct	7000	486496	493509	486242	57	493758	249	0	3	89
6.1.1	win	2020-04-16	13:20:42	1	1	1	USRTblock	1	USRT	92	600000	#ff0000	10pct	1	50pct	50pct	4000	493762	497774	493509	57	498041	267	0	3	90
6.1.1	win	2020-04-16	13:20:42	1	1	1	USRTblock	1	USRT	93	600000	#ff0000	10pct	1	50pct	50pct	4000	498044	502057	497774	57	502322	265	0	3	91
6.1.1	win	2020-04-16	13:20:42	1	1	1	USRTblock	1	USRT	94	600000	#ff0000	10pct	1	50pct	50pct	5000	502325	507340	502057	57	507618	278	0	3	92
6.1.1	win	2020-04-16	13:20:42	1	1	1	USRTblock	1	USRT	95	600000	#ff0000	10pct	1	50pct	50pct	8000	507622	-1	507340	57	514319	0	1	4	93
6.1.1	win	2020-04-16	13:20:42	1	1	1	USRTblock	1	USRT	96	600000	#ff0000	10pct	1	50pct	50pct	2000	514322	516339	-1	57	516613	274	0	4	94
6.1.1	win	2020-04-16	13:20:42	1	1	1	USRTblock	1	USRT	97	600000	#ff0000	10pct	1	50pct	50pct	5000	516616	521622	516339	57	521973	351	0	4	95
6.1.1	win	2020-04-16	13:20:42	1	1	1	USRTblock	1	USRT	98	600000	#ff0000	10pct	1	50pct	50pct	5000	521977	526988	521622	57	527287	299	0	4	96
6.1.1	win	2020-04-16	13:20:42	1	1	1	USRTblock	1	USRT	99	600000	#ff0000	10pct	1	50pct	50pct	2000	527291	529304	526988	57	529607	303	0	4	97
6.1.1	win	2020-04-16	13:20:42	1	1	1	USRTblock	1	USRT	100	600000	#ff0000	10pct	1	50pct	50pct	6000	529610	535621	529304	57	535917	296	0	4	98
6.1.1	win	2020-04-16	13:20:42	1	1	1	USRTblock	1	USRT	101	600000	#ff0000	10pct	1	50pct	50pct	8000	535920	543937	535621	57	544227	290	0	4	99
6.1.1	win	2020-04-16	13:20:42	1	1	1	USRTblock	1	USRT	102	600000	#ff0000	10pct	1	50pct	50pct	7000	544231	551236	543937	57	551531	295	0	4	100
6.1.1	win	2020-04-16	13:20:42	1	1	1	USRTblock	1	USRT	103	600000	#ff0000	10pct	1	50pct	50pct	4000	551535	555552	551236	57	555924	372	0	4	101
6.1.1	win	2020-04-16	13:20:42	1	1	1	USRTblock	1	USRT	104	600000	#ff0000	10pct	1	50pct	50pct	7000	555928	562934	555552	57	563241	307	0	4	102
6.1.1	win	2020-04-16	13:20:42	1	1	1	USRTblock	1	USRT	105	600000	#ff0000	10pct	1	50pct	50pct	7000	563244	570250	562934	57	570541	291	0	4	103
6.1.1	win	2020-04-16	13:20:42	1	1	1	USRTblock	1	USRT	106	600000	#ff0000	10pct	1	50pct	50pct	6000	570544	576550	570250	57	576867	317	0	4	104
6.1.1	win	2020-04-16	13:20:42	1	1	1	USRTblock	1	USRT	107	600000	#ff0000	10pct	1	50pct	50pct	6000	576870	582882	576550	57	583462	580	0	4	105
6.1.1	win	2020-04-16	13:20:42	1	1	1	USRTblock	1	USRT	108	600000	#ff0000	10pct	1	50pct	50pct	6000	583466	589482	582882	57	589751	269	0	4	106
6.1.1	win	2020-04-16	13:20:42	1	1	1	USRTblock	1	USRT	109	600000	#ff0000	10pct	1	50pct	50pct	3000	589754	592764	589482	57	593055	291	0	4	107
6.1.1	win	2020-04-16	13:20:42	1	1	1	USRTblock	1	USRT	110	600000	#ff0000	10pct	1	50pct	50pct	8000	593058	601064	592764	57	601349	285	0	4	108
6.1.1	win	2020-04-16	13:20:42	1	1	1	USRTblock	1	USRT	111	600000	#ff0000	10pct	1	50pct	50pct	2000	601353	-1	601064	0	601472	0	1	5	109
