build	computer.platform	date	time	subject	group	sessionid	blockcode	blocknum	trialcode	trialnum	testduration	targetcolor	targetsize	fixed	targetx	targety	stiminterval	trialStart	shape.targetcircle.timestamp	lastCircleTimestamp	response	rt_elapsed	rt	EarlyResponse	countEarlyResponses	countResponses
6.1.1	win	2020-04-16	13:02:24	1	1	1	USRTblock	1	USRT	3	600000	#ff0000	10pct	1	50pct	50pct	8000	2843	10849	2096	57	11133	284	0	0	1
6.1.1	win	2020-04-16	13:02:24	1	1	1	USRTblock	1	USRT	4	600000	#ff0000	10pct	1	50pct	50pct	2000	11167	13182	10849	57	13459	277	0	0	2
6.1.1	win	2020-04-16	13:02:24	1	1	1	USRTblock	1	USRT	5	600000	#ff0000	10pct	1	50pct	50pct	5000	13462	18481	13182	57	18739	258	0	0	3
6.1.1	win	2020-04-16	13:02:24	1	1	1	USRTblock	1	USRT	6	600000	#ff0000	10pct	1	50pct	50pct	5000	18743	23764	18481	57	24032	268	0	0	4
6.1.1	win	2020-04-16	13:02:24	1	1	1	USRTblock	1	USRT	7	600000	#ff0000	10pct	1	50pct	50pct	5000	24036	29047	23764	57	29321	274	0	0	5
6.1.1	win	2020-04-16	13:02:24	1	1	1	USRTblock	1	USRT	8	600000	#ff0000	10pct	1	50pct	50pct	8000	29324	37329	29047	57	37593	264	0	0	6
6.1.1	win	2020-04-16	13:02:24	1	1	1	USRTblock	1	USRT	9	600000	#ff0000	10pct	1	50pct	50pct	5000	37596	42612	37329	57	42908	296	0	0	7
6.1.1	win	2020-04-16	13:02:24	1	1	1	USRTblock	1	USRT	10	600000	#ff0000	10pct	1	50pct	50pct	2000	42912	44929	42612	57	45262	333	0	0	8
6.1.1	win	2020-04-16	13:02:24	1	1	1	USRTblock	1	USRT	11	600000	#ff0000	10pct	1	50pct	50pct	4000	45265	49278	44929	57	49533	255	0	0	9
6.1.1	win	2020-04-16	13:02:24	1	1	1	USRTblock	1	USRT	12	600000	#ff0000	10pct	1	50pct	50pct	2000	49536	51544	49278	57	51826	282	0	0	10
6.1.1	win	2020-04-16	13:02:24	1	1	1	USRTblock	1	USRT	13	600000	#ff0000	10pct	1	50pct	50pct	6000	51831	57844	51544	57	58093	249	0	0	11
6.1.1	win	2020-04-16	13:02:24	1	1	1	USRTblock	1	USRT	14	600000	#ff0000	10pct	1	50pct	50pct	5000	58096	63111	57844	57	63423	312	0	0	12
6.1.1	win	2020-04-16	13:02:24	1	1	1	USRTblock	1	USRT	15	600000	#ff0000	10pct	1	50pct	50pct	5000	63427	68442	63111	57	68714	272	0	0	13
6.1.1	win	2020-04-16	13:02:24	1	1	1	USRTblock	1	USRT	16	600000	#ff0000	10pct	1	50pct	50pct	2000	68717	70726	68442	57	71012	286	0	0	14
6.1.1	win	2020-04-16	13:02:24	1	1	1	USRTblock	1	USRT	17	600000	#ff0000	10pct	1	50pct	50pct	8000	71015	79026	70726	57	79307	281	0	0	15
6.1.1	win	2020-04-16	13:02:24	1	1	1	USRTblock	1	USRT	18	600000	#ff0000	10pct	1	50pct	50pct	3000	79311	82325	79026	57	82648	323	0	0	16
6.1.1	win	2020-04-16	13:02:24	1	1	1	USRTblock	1	USRT	19	600000	#ff0000	10pct	1	50pct	50pct	8000	82652	90657	82325	57	90954	297	0	0	17
6.1.1	win	2020-04-16	13:02:24	1	1	1	USRTblock	1	USRT	20	600000	#ff0000	10pct	1	50pct	50pct	5000	90957	95973	90657	57	96269	296	0	0	18
6.1.1	win	2020-04-16	13:02:24	1	1	1	USRTblock	1	USRT	21	600000	#ff0000	10pct	1	50pct	50pct	4000	96273	100289	95973	57	100591	302	0	0	19
6.1.1	win	2020-04-16	13:02:24	1	1	1	USRTblock	1	USRT	22	600000	#ff0000	10pct	1	50pct	50pct	8000	100594	108606	100289	57	108881	275	0	0	20
6.1.1	win	2020-04-16	13:02:24	1	1	1	USRTblock	1	USRT	23	600000	#ff0000	10pct	1	50pct	50pct	4000	108885	112906	108606	57	113184	278	0	0	21
6.1.1	win	2020-04-16	13:02:24	1	1	1	USRTblock	1	USRT	24	600000	#ff0000	10pct	1	50pct	50pct	4000	113188	117204	112906	57	117511	307	0	0	22
6.1.1	win	2020-04-16	13:02:24	1	1	1	USRTblock	1	USRT	25	600000	#ff0000	10pct	1	50pct	50pct	6000	117514	123521	117204	57	123728	207	0	0	23
6.1.1	win	2020-04-16	13:02:24	1	1	1	USRTblock	1	USRT	26	600000	#ff0000	10pct	1	50pct	50pct	5000	123732	128737	123521	57	129050	313	0	0	24
6.1.1	win	2020-04-16	13:02:24	1	1	1	USRTblock	1	USRT	27	600000	#ff0000	10pct	1	50pct	50pct	8000	129053	137069	128737	57	137332	263	0	0	25
6.1.1	win	2020-04-16	13:02:24	1	1	1	USRTblock	1	USRT	28	600000	#ff0000	10pct	1	50pct	50pct	7000	137335	144352	137069	57	144632	280	0	0	26
6.1.1	win	2020-04-16	13:02:24	1	1	1	USRTblock	1	USRT	29	600000	#ff0000	10pct	1	50pct	50pct	2000	144635	146651	144352	57	147029	378	0	0	27
6.1.1	win	2020-04-16	13:02:24	1	1	1	USRTblock	1	USRT	30	600000	#ff0000	10pct	1	50pct	50pct	7000	147032	154051	146651	57	154383	332	0	0	28
6.1.1	win	2020-04-16	13:02:24	1	1	1	USRTblock	1	USRT	31	600000	#ff0000	10pct	1	50pct	50pct	6000	154387	160400	154051	57	160726	326	0	0	29
6.1.1	win	2020-04-16	13:02:24	1	1	1	USRTblock	1	USRT	32	600000	#ff0000	10pct	1	50pct	50pct	4000	160729	164750	160400	57	165000	250	0	0	30
6.1.1	win	2020-04-16	13:02:24	1	1	1	USRTblock	1	USRT	33	600000	#ff0000	10pct	1	50pct	50pct	8000	165004	173017	164750	57	173277	260	0	0	31
6.1.1	win	2020-04-16	13:02:24	1	1	1	USRTblock	1	USRT	34	600000	#ff0000	10pct	1	50pct	50pct	3000	173281	176298	173017	57	176707	409	0	0	32
6.1.1	win	2020-04-16	13:02:24	1	1	1	USRTblock	1	USRT	35	600000	#ff0000	10pct	1	50pct	50pct	5000	176710	181731	176298	57	181992	261	0	0	33
6.1.1	win	2020-04-16	13:02:24	1	1	1	USRTblock	1	USRT	36	600000	#ff0000	10pct	1	50pct	50pct	3000	181995	185014	181731	57	185355	341	0	0	34
6.1.1	win	2020-04-16	13:02:24	1	1	1	USRTblock	1	USRT	37	600000	#ff0000	10pct	1	50pct	50pct	2000	185360	187380	185014	57	187664	284	0	0	35
6.1.1	win	2020-04-16	13:02:24	1	1	1	USRTblock	1	USRT	38	600000	#ff0000	10pct	1	50pct	50pct	3000	187667	190680	187380	57	190972	292	0	0	36
6.1.1	win	2020-04-16	13:02:24	1	1	1	USRTblock	1	USRT	39	600000	#ff0000	10pct	1	50pct	50pct	2000	190976	192997	190680	57	193361	364	0	0	37
6.1.1	win	2020-04-16	13:02:24	1	1	1	USRTblock	1	USRT	40	600000	#ff0000	10pct	1	50pct	50pct	5000	193363	198380	192997	57	198688	308	0	0	38
6.1.1	win	2020-04-16	13:02:24	1	1	1	USRTblock	1	USRT	41	600000	#ff0000	10pct	1	50pct	50pct	7000	198691	205696	198380	57	205971	275	0	0	39
6.1.1	win	2020-04-16	13:02:24	1	1	1	USRTblock	1	USRT	42	600000	#ff0000	10pct	1	50pct	50pct	5000	205975	210995	205696	57	211288	293	0	0	40
6.1.1	win	2020-04-16	13:02:24	1	1	1	USRTblock	1	USRT	43	600000	#ff0000	10pct	1	50pct	50pct	5000	211291	216311	210995	57	216877	566	0	0	41
6.1.1	win	2020-04-16	13:02:24	1	1	1	USRTblock	1	USRT	44	600000	#ff0000	10pct	1	50pct	50pct	6000	216881	222894	216311	57	223228	334	0	0	42
6.1.1	win	2020-04-16	13:02:24	1	1	1	USRTblock	1	USRT	45	600000	#ff0000	10pct	1	50pct	50pct	7000	223232	230243	222894	57	230503	260	0	0	43
6.1.1	win	2020-04-16	13:02:24	1	1	1	USRTblock	1	USRT	46	600000	#ff0000	10pct	1	50pct	50pct	3000	230507	233526	230243	57	233935	409	0	0	44
6.1.1	win	2020-04-16	13:02:24	1	1	1	USRTblock	1	USRT	47	600000	#ff0000	10pct	1	50pct	50pct	6000	233938	239960	233526	57	240238	278	0	0	45
6.1.1	win	2020-04-16	13:02:24	1	1	1	USRTblock	1	USRT	48	600000	#ff0000	10pct	1	50pct	50pct	2000	240242	242258	239960	57	242598	340	0	0	46
6.1.1	win	2020-04-16	13:02:24	1	1	1	USRTblock	1	USRT	49	600000	#ff0000	10pct	1	50pct	50pct	3000	242601	245608	242258	57	245914	306	0	0	47
6.1.1	win	2020-04-16	13:02:24	1	1	1	USRTblock	1	USRT	50	600000	#ff0000	10pct	1	50pct	50pct	5000	245919	250941	245608	57	251245	304	0	0	48
6.1.1	win	2020-04-16	13:02:24	1	1	1	USRTblock	1	USRT	51	600000	#ff0000	10pct	1	50pct	50pct	5000	251249	256258	250941	57	256695	437	0	0	49
6.1.1	win	2020-04-16	13:02:24	1	1	1	USRTblock	1	USRT	52	600000	#ff0000	10pct	1	50pct	50pct	8000	256699	-1	256258	57	261073	0	1	1	50
6.1.1	win	2020-04-16	13:02:24	1	1	1	USRTblock	1	USRT	53	600000	#ff0000	10pct	1	50pct	50pct	4000	261076	265090	-1	57	265363	273	0	1	51
6.1.1	win	2020-04-16	13:02:24	1	1	1	USRTblock	1	USRT	54	600000	#ff0000	10pct	1	50pct	50pct	3000	265367	268389	265090	57	268713	324	0	1	52
6.1.1	win	2020-04-16	13:02:24	1	1	1	USRTblock	1	USRT	55	600000	#ff0000	10pct	1	50pct	50pct	6000	268717	274722	268389	57	274971	249	0	1	53
6.1.1	win	2020-04-16	13:02:24	1	1	1	USRTblock	1	USRT	56	600000	#ff0000	10pct	1	50pct	50pct	6000	274974	280988	274722	57	281247	259	0	1	54
6.1.1	win	2020-04-16	13:02:24	1	1	1	USRTblock	1	USRT	57	600000	#ff0000	10pct	1	50pct	50pct	7000	281251	288271	280988	57	288554	283	0	1	55
6.1.1	win	2020-04-16	13:02:24	1	1	1	USRTblock	1	USRT	58	600000	#ff0000	10pct	1	50pct	50pct	4000	288558	292570	288271	57	292852	282	0	1	56
6.1.1	win	2020-04-16	13:02:24	1	1	1	USRTblock	1	USRT	59	600000	#ff0000	10pct	1	50pct	50pct	3000	292855	295870	292570	57	296150	280	0	1	57
6.1.1	win	2020-04-16	13:02:24	1	1	1	USRTblock	1	USRT	60	600000	#ff0000	10pct	1	50pct	50pct	5000	296154	301170	295870	57	301426	256	0	1	58
6.1.1	win	2020-04-16	13:02:24	1	1	1	USRTblock	1	USRT	61	600000	#ff0000	10pct	1	50pct	50pct	8000	301429	309436	301170	57	309695	259	0	1	59
6.1.1	win	2020-04-16	13:02:24	1	1	1	USRTblock	1	USRT	62	600000	#ff0000	10pct	1	50pct	50pct	6000	309699	315719	309436	57	315992	273	0	1	60
6.1.1	win	2020-04-16	13:02:24	1	1	1	USRTblock	1	USRT	63	600000	#ff0000	10pct	1	50pct	50pct	7000	315996	323001	315719	57	323332	331	0	1	61
6.1.1	win	2020-04-16	13:02:24	1	1	1	USRTblock	1	USRT	64	600000	#ff0000	10pct	1	50pct	50pct	2000	323335	325350	323001	57	325654	304	0	1	62
6.1.1	win	2020-04-16	13:02:24	1	1	1	USRTblock	1	USRT	65	600000	#ff0000	10pct	1	50pct	50pct	3000	325658	328667	325350	57	328938	271	0	1	63
6.1.1	win	2020-04-16	13:02:24	1	1	1	USRTblock	1	USRT	66	600000	#ff0000	10pct	1	50pct	50pct	5000	328941	333950	328667	57	334237	287	0	1	64
6.1.1	win	2020-04-16	13:02:24	1	1	1	USRTblock	1	USRT	67	600000	#ff0000	10pct	1	50pct	50pct	8000	334241	342249	333950	57	342530	281	0	1	65
6.1.1	win	2020-04-16	13:02:24	1	1	1	USRTblock	1	USRT	68	600000	#ff0000	10pct	1	50pct	50pct	3000	342534	345549	342249	57	345948	399	0	1	66
6.1.1	win	2020-04-16	13:02:24	1	1	1	USRTblock	1	USRT	69	600000	#ff0000	10pct	1	50pct	50pct	4000	345952	349965	345549	57	350278	313	0	1	67
6.1.1	win	2020-04-16	13:02:24	1	1	1	USRTblock	1	USRT	70	600000	#ff0000	10pct	1	50pct	50pct	7000	350282	357297	349965	57	357622	325	0	1	68
6.1.1	win	2020-04-16	13:02:24	1	1	1	USRTblock	1	USRT	71	600000	#ff0000	10pct	1	50pct	50pct	5000	357625	362647	357297	57	362902	255	0	1	69
6.1.1	win	2020-04-16	13:02:24	1	1	1	USRTblock	1	USRT	72	600000	#ff0000	10pct	1	50pct	50pct	5000	362905	367913	362647	57	368145	232	0	1	70
6.1.1	win	2020-04-16	13:02:24	1	1	1	USRTblock	1	USRT	73	600000	#ff0000	10pct	1	50pct	50pct	2000	368149	370162	367913	57	370573	411	0	1	71
6.1.1	win	2020-04-16	13:02:24	1	1	1	USRTblock	1	USRT	74	600000	#ff0000	10pct	1	50pct	50pct	3000	370577	373595	370162	57	373879	284	0	1	72
6.1.1	win	2020-04-16	13:02:24	1	1	1	USRTblock	1	USRT	75	600000	#ff0000	10pct	1	50pct	50pct	3000	373882	376895	373595	57	377161	266	0	1	73
6.1.1	win	2020-04-16	13:02:24	1	1	1	USRTblock	1	USRT	76	600000	#ff0000	10pct	1	50pct	50pct	6000	377165	383178	376895	57	383490	312	0	1	74
6.1.1	win	2020-04-16	13:02:24	1	1	1	USRTblock	1	USRT	77	600000	#ff0000	10pct	1	50pct	50pct	8000	383493	391510	383178	57	391811	301	0	1	75
6.1.1	win	2020-04-16	13:02:24	1	1	1	USRTblock	1	USRT	78	600000	#ff0000	10pct	1	50pct	50pct	3000	391815	394827	391510	57	395146	319	0	1	76
6.1.1	win	2020-04-16	13:02:24	1	1	1	USRTblock	1	USRT	79	600000	#ff0000	10pct	1	50pct	50pct	4000	395149	399160	394827	57	399444	284	0	1	77
6.1.1	win	2020-04-16	13:02:24	1	1	1	USRTblock	1	USRT	80	600000	#ff0000	10pct	1	50pct	50pct	7000	399448	406459	399160	57	406709	250	0	1	78
6.1.1	win	2020-04-16	13:02:24	1	1	1	USRTblock	1	USRT	81	600000	#ff0000	10pct	1	50pct	50pct	2000	406712	408725	406459	57	409077	352	0	1	79
6.1.1	win	2020-04-16	13:02:24	1	1	1	USRTblock	1	USRT	82	600000	#ff0000	10pct	1	50pct	50pct	2000	409080	411092	408725	57	411384	292	0	1	80
6.1.1	win	2020-04-16	13:02:24	1	1	1	USRTblock	1	USRT	83	600000	#ff0000	10pct	1	50pct	50pct	6000	411388	417408	411092	57	417661	253	0	1	81
6.1.1	win	2020-04-16	13:02:24	1	1	1	USRTblock	1	USRT	84	600000	#ff0000	10pct	1	50pct	50pct	7000	417665	424676	417408	57	424941	265	0	1	82
6.1.1	win	2020-04-16	13:02:24	1	1	1	USRTblock	1	USRT	85	600000	#ff0000	10pct	1	50pct	50pct	4000	424945	428957	424676	57	429289	332	0	1	83
6.1.1	win	2020-04-16	13:02:24	1	1	1	USRTblock	1	USRT	86	600000	#ff0000	10pct	1	50pct	50pct	2000	429292	431306	428957	57	431624	318	0	1	84
6.1.1	win	2020-04-16	13:02:24	1	1	1	USRTblock	1	USRT	87	600000	#ff0000	10pct	1	50pct	50pct	7000	431628	438639	431306	57	438904	265	0	1	85
6.1.1	win	2020-04-16	13:02:24	1	1	1	USRTblock	1	USRT	88	600000	#ff0000	10pct	1	50pct	50pct	3000	438907	441921	438639	57	442421	500	0	1	86
6.1.1	win	2020-04-16	13:02:24	1	1	1	USRTblock	1	USRT	89	600000	#ff0000	10pct	1	50pct	50pct	5000	442425	447438	441921	57	447851	413	0	1	87
6.1.1	win	2020-04-16	13:02:24	1	1	1	USRTblock	1	USRT	90	600000	#ff0000	10pct	1	50pct	50pct	3000	447854	450871	447438	57	451181	310	0	1	88
6.1.1	win	2020-04-16	13:02:24	1	1	1	USRTblock	1	USRT	91	600000	#ff0000	10pct	1	50pct	50pct	8000	451184	459204	450871	57	459452	248	0	1	89
6.1.1	win	2020-04-16	13:02:24	1	1	1	USRTblock	1	USRT	92	600000	#ff0000	10pct	1	50pct	50pct	5000	459456	464470	459204	57	464787	317	0	1	90
6.1.1	win	2020-04-16	13:02:24	1	1	1	USRTblock	1	USRT	93	600000	#ff0000	10pct	1	50pct	50pct	2000	464791	466803	464470	57	467291	488	0	1	91
6.1.1	win	2020-04-16	13:02:24	1	1	1	USRTblock	1	USRT	94	600000	#ff0000	10pct	1	50pct	50pct	5000	467295	472302	466803	57	472673	371	0	1	92
6.1.1	win	2020-04-16	13:02:24	1	1	1	USRTblock	1	USRT	95	600000	#ff0000	10pct	1	50pct	50pct	4000	472677	476685	472302	57	476954	269	0	1	93
6.1.1	win	2020-04-16	13:02:24	1	1	1	USRTblock	1	USRT	96	600000	#ff0000	10pct	1	50pct	50pct	5000	476958	481968	476685	57	482210	242	0	1	94
6.1.1	win	2020-04-16	13:02:24	1	1	1	USRTblock	1	USRT	97	600000	#ff0000	10pct	1	50pct	50pct	7000	482214	489234	481968	57	489507	273	0	1	95
6.1.1	win	2020-04-16	13:02:24	1	1	1	USRTblock	1	USRT	98	600000	#ff0000	10pct	1	50pct	50pct	4000	489511	493517	489234	57	493815	298	0	1	96
6.1.1	win	2020-04-16	13:02:24	1	1	1	USRTblock	1	USRT	99	600000	#ff0000	10pct	1	50pct	50pct	3000	493819	496833	493517	57	497309	476	0	1	97
6.1.1	win	2020-04-16	13:02:24	1	1	1	USRTblock	1	USRT	100	600000	#ff0000	10pct	1	50pct	50pct	8000	497314	505333	496833	57	505660	327	0	1	98
6.1.1	win	2020-04-16	13:02:24	1	1	1	USRTblock	1	USRT	101	600000	#ff0000	10pct	1	50pct	50pct	7000	505665	512682	505333	57	513017	335	0	1	99
6.1.1	win	2020-04-16	13:02:24	1	1	1	USRTblock	1	USRT	102	600000	#ff0000	10pct	1	50pct	50pct	4000	513020	517033	512682	57	517308	275	0	1	100
6.1.1	win	2020-04-16	13:02:24	1	1	1	USRTblock	1	USRT	103	600000	#ff0000	10pct	1	50pct	50pct	8000	517314	525331	517033	57	525651	320	0	1	101
6.1.1	win	2020-04-16	13:02:24	1	1	1	USRTblock	1	USRT	104	600000	#ff0000	10pct	1	50pct	50pct	5000	525654	530664	525331	57	530931	267	0	1	102
6.1.1	win	2020-04-16	13:02:24	1	1	1	USRTblock	1	USRT	105	600000	#ff0000	10pct	1	50pct	50pct	3000	530935	533946	530664	57	534335	389	0	1	103
6.1.1	win	2020-04-16	13:02:24	1	1	1	USRTblock	1	USRT	106	600000	#ff0000	10pct	1	50pct	50pct	5000	534339	539346	533946	57	539608	262	0	1	104
6.1.1	win	2020-04-16	13:02:24	1	1	1	USRTblock	1	USRT	107	600000	#ff0000	10pct	1	50pct	50pct	4000	539613	543629	539346	57	543906	277	0	1	105
6.1.1	win	2020-04-16	13:02:24	1	1	1	USRTblock	1	USRT	108	600000	#ff0000	10pct	1	50pct	50pct	5000	543910	548928	543629	57	549301	373	0	1	106
6.1.1	win	2020-04-16	13:02:24	1	1	1	USRTblock	1	USRT	109	600000	#ff0000	10pct	1	50pct	50pct	4000	549305	553310	548928	57	553605	295	0	1	107
6.1.1	win	2020-04-16	13:02:24	1	1	1	USRTblock	1	USRT	110	600000	#ff0000	10pct	1	50pct	50pct	5000	553609	558627	553310	57	558925	298	0	1	108
6.1.1	win	2020-04-16	13:02:24	1	1	1	USRTblock	1	USRT	111	600000	#ff0000	10pct	1	50pct	50pct	4000	558929	562943	558627	57	563277	334	0	1	109
6.1.1	win	2020-04-16	13:02:24	1	1	1	USRTblock	1	USRT	112	600000	#ff0000	10pct	1	50pct	50pct	6000	563281	569292	562943	57	569710	418	0	1	110
6.1.1	win	2020-04-16	13:02:24	1	1	1	USRTblock	1	USRT	113	600000	#ff0000	10pct	1	50pct	50pct	4000	569714	573726	569292	57	573994	268	0	1	111
6.1.1	win	2020-04-16	13:02:24	1	1	1	USRTblock	1	USRT	114	600000	#ff0000	10pct	1	50pct	50pct	5000	573998	579008	573726	57	579306	298	0	1	112
6.1.1	win	2020-04-16	13:02:24	1	1	1	USRTblock	1	USRT	115	600000	#ff0000	10pct	1	50pct	50pct	5000	579310	584325	579008	57	584704	379	0	1	113
6.1.1	win	2020-04-16	13:02:24	1	1	1	USRTblock	1	USRT	116	600000	#ff0000	10pct	1	50pct	50pct	3000	584708	587725	584325	57	587980	255	0	1	114
6.1.1	win	2020-04-16	13:02:24	1	1	1	USRTblock	1	USRT	117	600000	#ff0000	10pct	1	50pct	50pct	8000	587984	595990	587725	57	596260	270	0	1	115
6.1.1	win	2020-04-16	13:02:24	1	1	1	USRTblock	1	USRT	118	600000	#ff0000	10pct	1	50pct	50pct	4000	596265	600274	595990	57	600727	453	0	1	116
6.1.1	win	2020-04-16	13:02:24	1	1	1	USRTblock	1	USRT	119	600000	#ff0000	10pct	1	50pct	50pct	3000	600732	-1	600274	0	600849	0	1	2	117
