build	computer.platform	date	time	subject	group	sessionid	blockcode	blocknum	trialcode	trialnum	testduration	targetcolor	targetsize	fixed	targetx	targety	stiminterval	trialStart	shape.targetcircle.timestamp	lastCircleTimestamp	response	rt_elapsed	rt	EarlyResponse	countEarlyResponses	countResponses
6.1.1	win	2020-04-17	16:49:41	1	1	1	USRTblock	1	USRT	3	600000	#ff0000	10pct	1	50pct	50pct	3000	2591	5605	1867	57	5835	230	0	0	1
6.1.1	win	2020-04-17	16:49:41	1	1	1	USRTblock	1	USRT	4	600000	#ff0000	10pct	1	50pct	50pct	7000	5846	12853	5605	57	13094	241	0	0	2
6.1.1	win	2020-04-17	16:49:41	1	1	1	USRTblock	1	USRT	5	600000	#ff0000	10pct	1	50pct	50pct	2000	13098	15119	12853	57	15403	284	0	0	3
6.1.1	win	2020-04-17	16:49:41	1	1	1	USRTblock	1	USRT	6	600000	#ff0000	10pct	1	50pct	50pct	2000	15406	17419	15119	57	17691	272	0	0	4
6.1.1	win	2020-04-17	16:49:41	1	1	1	USRTblock	1	USRT	7	600000	#ff0000	10pct	1	50pct	50pct	2000	17695	19701	17419	57	19977	276	0	0	5
6.1.1	win	2020-04-17	16:49:41	1	1	1	USRTblock	1	USRT	8	600000	#ff0000	10pct	1	50pct	50pct	4000	19980	23985	19701	57	24288	303	0	0	6
6.1.1	win	2020-04-17	16:49:41	1	1	1	USRTblock	1	USRT	9	600000	#ff0000	10pct	1	50pct	50pct	3000	24292	27301	23985	57	27623	322	0	0	7
6.1.1	win	2020-04-17	16:49:41	1	1	1	USRTblock	1	USRT	10	600000	#ff0000	10pct	1	50pct	50pct	2000	27626	29634	27301	57	29953	319	0	0	8
6.1.1	win	2020-04-17	16:49:41	1	1	1	USRTblock	1	USRT	11	600000	#ff0000	10pct	1	50pct	50pct	4000	29956	33968	29634	57	34283	315	0	0	9
6.1.1	win	2020-04-17	16:49:41	1	1	1	USRTblock	1	USRT	12	600000	#ff0000	10pct	1	50pct	50pct	3000	34286	37300	33968	57	37590	290	0	0	10
6.1.1	win	2020-04-17	16:49:41	1	1	1	USRTblock	1	USRT	13	600000	#ff0000	10pct	1	50pct	50pct	5000	37594	42617	37300	57	42906	289	0	0	11
6.1.1	win	2020-04-17	16:49:41	1	1	1	USRTblock	1	USRT	14	600000	#ff0000	10pct	1	50pct	50pct	7000	42910	49916	42617	57	50214	298	0	0	12
6.1.1	win	2020-04-17	16:49:41	1	1	1	USRTblock	1	USRT	15	600000	#ff0000	10pct	1	50pct	50pct	7000	50217	57232	49916	57	57512	280	0	0	13
6.1.1	win	2020-04-17	16:49:41	1	1	1	USRTblock	1	USRT	16	600000	#ff0000	10pct	1	50pct	50pct	7000	57516	64531	57232	57	64957	426	0	0	14
6.1.1	win	2020-04-17	16:49:41	1	1	1	USRTblock	1	USRT	17	600000	#ff0000	10pct	1	50pct	50pct	6000	64960	70981	64531	57	71394	413	0	0	15
6.1.1	win	2020-04-17	16:49:41	1	1	1	USRTblock	1	USRT	18	600000	#ff0000	10pct	1	50pct	50pct	3000	71419	74431	70981	57	74738	307	0	0	16
6.1.1	win	2020-04-17	16:49:41	1	1	1	USRTblock	1	USRT	19	600000	#ff0000	10pct	1	50pct	50pct	3000	74742	77763	74431	57	78014	251	0	0	17
6.1.1	win	2020-04-17	16:49:41	1	1	1	USRTblock	1	USRT	20	600000	#ff0000	10pct	1	50pct	50pct	6000	78017	84029	77763	57	84281	252	0	0	18
6.1.1	win	2020-04-17	16:49:41	1	1	1	USRTblock	1	USRT	21	600000	#ff0000	10pct	1	50pct	50pct	3000	84285	87295	84029	57	87562	267	0	0	19
6.1.1	win	2020-04-17	16:49:41	1	1	1	USRTblock	1	USRT	22	600000	#ff0000	10pct	1	50pct	50pct	8000	87565	95578	87295	57	95865	287	0	0	20
6.1.1	win	2020-04-17	16:49:41	1	1	1	USRTblock	1	USRT	23	600000	#ff0000	10pct	1	50pct	50pct	4000	95868	99877	95578	57	100233	356	0	0	21
6.1.1	win	2020-04-17	16:49:41	1	1	1	USRTblock	1	USRT	24	600000	#ff0000	10pct	1	50pct	50pct	5000	100236	105243	99877	57	105519	276	0	0	22
6.1.1	win	2020-04-17	16:49:41	1	1	1	USRTblock	1	USRT	25	600000	#ff0000	10pct	1	50pct	50pct	7000	105523	112544	105243	57	112792	248	0	0	23
6.1.1	win	2020-04-17	16:49:41	1	1	1	USRTblock	1	USRT	26	600000	#ff0000	10pct	1	50pct	50pct	2000	112795	114809	112544	57	115198	389	0	0	24
6.1.1	win	2020-04-17	16:49:41	1	1	1	USRTblock	1	USRT	27	600000	#ff0000	10pct	1	50pct	50pct	6000	115202	121209	114809	57	121547	338	0	0	25
6.1.1	win	2020-04-17	16:49:41	1	1	1	USRTblock	1	USRT	28	600000	#ff0000	10pct	1	50pct	50pct	4000	121550	125559	121209	57	125850	291	0	0	26
6.1.1	win	2020-04-17	16:49:41	1	1	1	USRTblock	1	USRT	29	600000	#ff0000	10pct	1	50pct	50pct	3000	125853	128874	125559	57	129135	261	0	0	27
6.1.1	win	2020-04-17	16:49:41	1	1	1	USRTblock	1	USRT	30	600000	#ff0000	10pct	1	50pct	50pct	8000	129138	137158	128874	57	137442	284	0	0	28
6.1.1	win	2020-04-17	16:49:41	1	1	1	USRTblock	1	USRT	31	600000	#ff0000	10pct	1	50pct	50pct	5000	137446	142457	137158	57	142728	271	0	0	29
6.1.1	win	2020-04-17	16:49:41	1	1	1	USRTblock	1	USRT	32	600000	#ff0000	10pct	1	50pct	50pct	6000	142732	148740	142457	57	148981	241	0	0	30
6.1.1	win	2020-04-17	16:49:41	1	1	1	USRTblock	1	USRT	33	600000	#ff0000	10pct	1	50pct	50pct	6000	148985	155005	148740	57	155278	273	0	0	31
6.1.1	win	2020-04-17	16:49:41	1	1	1	USRTblock	1	USRT	34	600000	#ff0000	10pct	1	50pct	50pct	7000	155281	162288	155005	57	162566	278	0	0	32
6.1.1	win	2020-04-17	16:49:41	1	1	1	USRTblock	1	USRT	35	600000	#ff0000	10pct	1	50pct	50pct	7000	162570	169588	162288	57	169931	343	0	0	33
6.1.1	win	2020-04-17	16:49:41	1	1	1	USRTblock	1	USRT	36	600000	#ff0000	10pct	1	50pct	50pct	5000	169935	174954	169588	57	175224	270	0	0	34
6.1.1	win	2020-04-17	16:49:41	1	1	1	USRTblock	1	USRT	37	600000	#ff0000	10pct	1	50pct	50pct	6000	175228	181236	174954	57	181517	281	0	0	35
6.1.1	win	2020-04-17	16:49:41	1	1	1	USRTblock	1	USRT	38	600000	#ff0000	10pct	1	50pct	50pct	5000	181520	186536	181236	57	187132	596	0	0	36
6.1.1	win	2020-04-17	16:49:41	1	1	1	USRTblock	1	USRT	39	600000	#ff0000	10pct	1	50pct	50pct	6000	187135	193152	186536	57	193469	317	0	0	37
6.1.1	win	2020-04-17	16:49:41	1	1	1	USRTblock	1	USRT	40	600000	#ff0000	10pct	1	50pct	50pct	2000	193473	195484	193152	57	195788	304	0	0	38
6.1.1	win	2020-04-17	16:49:41	1	1	1	USRTblock	1	USRT	41	600000	#ff0000	10pct	1	50pct	50pct	8000	195792	203801	195484	57	204118	317	0	0	39
6.1.1	win	2020-04-17	16:49:41	1	1	1	USRTblock	1	USRT	42	600000	#ff0000	10pct	1	50pct	50pct	4000	204121	208133	203801	57	208422	289	0	0	40
6.1.1	win	2020-04-17	16:49:41	1	1	1	USRTblock	1	USRT	43	600000	#ff0000	10pct	1	50pct	50pct	3000	208426	211449	208133	57	211741	292	0	0	41
6.1.1	win	2020-04-17	16:49:41	1	1	1	USRTblock	1	USRT	44	600000	#ff0000	10pct	1	50pct	50pct	7000	211744	218749	211449	57	219054	305	0	0	42
6.1.1	win	2020-04-17	16:49:41	1	1	1	USRTblock	1	USRT	45	600000	#ff0000	10pct	1	50pct	50pct	3000	219058	222065	218749	57	222371	306	0	0	43
6.1.1	win	2020-04-17	16:49:41	1	1	1	USRTblock	1	USRT	46	600000	#ff0000	10pct	1	50pct	50pct	6000	222375	228381	222065	57	228701	320	0	0	44
6.1.1	win	2020-04-17	16:49:41	1	1	1	USRTblock	1	USRT	47	600000	#ff0000	10pct	1	50pct	50pct	7000	228704	235714	228381	57	236095	381	0	0	45
6.1.1	win	2020-04-17	16:49:41	1	1	1	USRTblock	1	USRT	48	600000	#ff0000	10pct	1	50pct	50pct	3000	236098	239113	235714	57	239503	390	0	0	46
6.1.1	win	2020-04-17	16:49:41	1	1	1	USRTblock	1	USRT	49	600000	#ff0000	10pct	1	50pct	50pct	2000	239506	241513	239113	57	241915	402	0	0	47
6.1.1	win	2020-04-17	16:49:41	1	1	1	USRTblock	1	USRT	50	600000	#ff0000	10pct	1	50pct	50pct	2000	241920	243929	241513	57	244303	374	0	0	48
6.1.1	win	2020-04-17	16:49:41	1	1	1	USRTblock	1	USRT	51	600000	#ff0000	10pct	1	50pct	50pct	7000	244306	251312	243929	57	251593	281	0	0	49
6.1.1	win	2020-04-17	16:49:41	1	1	1	USRTblock	1	USRT	52	600000	#ff0000	10pct	1	50pct	50pct	5000	251596	256612	251312	57	256968	356	0	0	50
6.1.1	win	2020-04-17	16:49:41	1	1	1	USRTblock	1	USRT	53	600000	#ff0000	10pct	1	50pct	50pct	4000	256972	260978	256612	57	261356	378	0	0	51
6.1.1	win	2020-04-17	16:49:41	1	1	1	USRTblock	1	USRT	54	600000	#ff0000	10pct	1	50pct	50pct	6000	261359	267378	260978	57	267655	277	0	0	52
6.1.1	win	2020-04-17	16:49:41	1	1	1	USRTblock	1	USRT	55	600000	#ff0000	10pct	1	50pct	50pct	8000	267659	275677	267378	57	275958	281	0	0	53
6.1.1	win	2020-04-17	16:49:41	1	1	1	USRTblock	1	USRT	56	600000	#ff0000	10pct	1	50pct	50pct	4000	275962	279977	275677	57	280218	241	0	0	54
6.1.1	win	2020-04-17	16:49:41	1	1	1	USRTblock	1	USRT	57	600000	#ff0000	10pct	1	50pct	50pct	7000	280222	287242	279977	57	287626	384	0	0	55
6.1.1	win	2020-04-17	16:49:41	1	1	1	USRTblock	1	USRT	58	600000	#ff0000	10pct	1	50pct	50pct	6000	287629	293641	287242	57	294015	374	0	0	56
6.1.1	win	2020-04-17	16:49:41	1	1	1	USRTblock	1	USRT	59	600000	#ff0000	10pct	1	50pct	50pct	5000	294020	299041	293641	57	299334	293	0	0	57
6.1.1	win	2020-04-17	16:49:41	1	1	1	USRTblock	1	USRT	60	600000	#ff0000	10pct	1	50pct	50pct	3000	299339	302357	299041	57	302686	329	0	0	58
6.1.1	win	2020-04-17	16:49:41	1	1	1	USRTblock	1	USRT	61	600000	#ff0000	10pct	1	50pct	50pct	8000	302689	-1	302357	57	308256	0	1	1	59
6.1.1	win	2020-04-17	16:49:41	1	1	1	USRTblock	1	USRT	62	600000	#ff0000	10pct	1	50pct	50pct	8000	308259	316273	-1	57	316637	364	0	1	60
6.1.1	win	2020-04-17	16:49:41	1	1	1	USRTblock	1	USRT	63	600000	#ff0000	10pct	1	50pct	50pct	4000	316641	320655	316273	57	320996	341	0	1	61
6.1.1	win	2020-04-17	16:49:41	1	1	1	USRTblock	1	USRT	64	600000	#ff0000	10pct	1	50pct	50pct	4000	321000	325005	320655	57	325292	287	0	1	62
6.1.1	win	2020-04-17	16:49:41	1	1	1	USRTblock	1	USRT	65	600000	#ff0000	10pct	1	50pct	50pct	4000	325296	329304	325005	57	329600	296	0	1	63
6.1.1	win	2020-04-17	16:49:41	1	1	1	USRTblock	1	USRT	66	600000	#ff0000	10pct	1	50pct	50pct	2000	329603	331621	329304	57	332207	586	0	1	64
6.1.1	win	2020-04-17	16:49:41	1	1	1	USRTblock	1	USRT	67	600000	#ff0000	10pct	1	50pct	50pct	3000	332213	335221	331621	57	335616	395	0	1	65
6.1.1	win	2020-04-17	16:49:41	1	1	1	USRTblock	1	USRT	68	600000	#ff0000	10pct	1	50pct	50pct	4000	335619	339637	335221	57	339942	305	0	1	66
6.1.1	win	2020-04-17	16:49:41	1	1	1	USRTblock	1	USRT	69	600000	#ff0000	10pct	1	50pct	50pct	8000	339947	347969	339637	57	348349	380	0	1	67
6.1.1	win	2020-04-17	16:49:41	1	1	1	USRTblock	1	USRT	70	600000	#ff0000	10pct	1	50pct	50pct	3000	348353	351369	347969	57	351712	343	0	1	68
6.1.1	win	2020-04-17	16:49:41	1	1	1	USRTblock	1	USRT	71	600000	#ff0000	10pct	1	50pct	50pct	2000	351716	353735	351369	57	354095	360	0	1	69
6.1.1	win	2020-04-17	16:49:41	1	1	1	USRTblock	1	USRT	72	600000	#ff0000	10pct	1	50pct	50pct	6000	354099	360119	353735	57	360463	344	0	1	70
6.1.1	win	2020-04-17	16:49:41	1	1	1	USRTblock	1	USRT	73	600000	#ff0000	10pct	1	50pct	50pct	8000	360467	368485	360119	57	368942	457	0	1	71
6.1.1	win	2020-04-17	16:49:41	1	1	1	USRTblock	1	USRT	74	600000	#ff0000	10pct	1	50pct	50pct	4000	368945	372950	368485	57	373239	289	0	1	72
6.1.1	win	2020-04-17	16:49:41	1	1	1	USRTblock	1	USRT	75	600000	#ff0000	10pct	1	50pct	50pct	7000	373243	380249	372950	57	380584	335	0	1	73
6.1.1	win	2020-04-17	16:49:41	1	1	1	USRTblock	1	USRT	76	600000	#ff0000	10pct	1	50pct	50pct	3000	380588	383599	380249	57	384001	402	0	1	74
6.1.1	win	2020-04-17	16:49:41	1	1	1	USRTblock	1	USRT	77	600000	#ff0000	10pct	1	50pct	50pct	3000	384005	387015	383599	57	387372	357	0	1	75
6.1.1	win	2020-04-17	16:49:41	1	1	1	USRTblock	1	USRT	78	600000	#ff0000	10pct	1	50pct	50pct	6000	387376	393382	387015	57	393698	316	0	1	76
6.1.1	win	2020-04-17	16:49:41	1	1	1	USRTblock	1	USRT	79	600000	#ff0000	10pct	1	50pct	50pct	7000	393702	400714	393382	57	400980	266	0	1	77
6.1.1	win	2020-04-17	16:49:41	1	1	1	USRTblock	1	USRT	80	600000	#ff0000	10pct	1	50pct	50pct	2000	400985	402997	400714	57	403373	376	0	1	78
6.1.1	win	2020-04-17	16:49:41	1	1	1	USRTblock	1	USRT	81	600000	#ff0000	10pct	1	50pct	50pct	4000	403378	407396	402997	57	407634	238	0	1	79
6.1.1	win	2020-04-17	16:49:41	1	1	1	USRTblock	1	USRT	82	600000	#ff0000	10pct	1	50pct	50pct	7000	407638	414646	407396	57	414905	259	0	1	80
6.1.1	win	2020-04-17	16:49:41	1	1	1	USRTblock	1	USRT	83	600000	#ff0000	10pct	1	50pct	50pct	6000	414908	420929	414646	57	421170	241	0	1	81
6.1.1	win	2020-04-17	16:49:41	1	1	1	USRTblock	1	USRT	84	600000	#ff0000	10pct	1	50pct	50pct	7000	421174	428178	420929	57	428453	275	0	1	82
6.1.1	win	2020-04-17	16:49:41	1	1	1	USRTblock	1	USRT	85	600000	#ff0000	10pct	1	50pct	50pct	3000	428456	431477	428178	57	431785	308	0	1	83
6.1.1	win	2020-04-17	16:49:41	1	1	1	USRTblock	1	USRT	86	600000	#ff0000	10pct	1	50pct	50pct	5000	431789	436810	431477	57	437105	295	0	1	84
6.1.1	win	2020-04-17	16:49:41	1	1	1	USRTblock	1	USRT	87	600000	#ff0000	10pct	1	50pct	50pct	2000	437108	439127	436810	57	439580	453	0	1	85
6.1.1	win	2020-04-17	16:49:41	1	1	1	USRTblock	1	USRT	88	600000	#ff0000	10pct	1	50pct	50pct	4000	439583	443593	439127	57	443908	315	0	1	86
6.1.1	win	2020-04-17	16:49:41	1	1	1	USRTblock	1	USRT	89	600000	#ff0000	10pct	1	50pct	50pct	7000	443911	450926	443593	57	451245	319	0	1	87
6.1.1	win	2020-04-17	16:49:41	1	1	1	USRTblock	1	USRT	90	600000	#ff0000	10pct	1	50pct	50pct	6000	451248	457258	450926	57	457531	273	0	1	88
6.1.1	win	2020-04-17	16:49:41	1	1	1	USRTblock	1	USRT	91	600000	#ff0000	10pct	1	50pct	50pct	2000	457535	459541	457258	57	460008	467	0	1	89
6.1.1	win	2020-04-17	16:49:41	1	1	1	USRTblock	1	USRT	92	600000	#ff0000	10pct	1	50pct	50pct	3000	460011	463024	459541	57	463403	379	0	1	90
6.1.1	win	2020-04-17	16:49:41	1	1	1	USRTblock	1	USRT	93	600000	#ff0000	10pct	1	50pct	50pct	4000	463407	467424	463024	57	467820	396	0	1	91
6.1.1	win	2020-04-17	16:49:41	1	1	1	USRTblock	1	USRT	94	600000	#ff0000	10pct	1	50pct	50pct	2000	467823	469840	467424	57	470177	337	0	1	92
6.1.1	win	2020-04-17	16:49:41	1	1	1	USRTblock	1	USRT	95	600000	#ff0000	10pct	1	50pct	50pct	7000	470182	477190	469840	57	477501	311	0	1	93
6.1.1	win	2020-04-17	16:49:41	1	1	1	USRTblock	1	USRT	96	600000	#ff0000	10pct	1	50pct	50pct	4000	477504	481523	477190	57	481838	315	0	1	94
6.1.1	win	2020-04-17	16:49:41	1	1	1	USRTblock	1	USRT	97	600000	#ff0000	10pct	1	50pct	50pct	4000	481842	485855	481523	57	486188	333	0	1	95
6.1.1	win	2020-04-17	16:49:41	1	1	1	USRTblock	1	USRT	98	600000	#ff0000	10pct	1	50pct	50pct	7000	486192	493205	485855	57	493479	274	0	1	96
6.1.1	win	2020-04-17	16:49:41	1	1	1	USRTblock	1	USRT	99	600000	#ff0000	10pct	1	50pct	50pct	7000	493483	500487	493205	57	500794	307	0	1	97
6.1.1	win	2020-04-17	16:49:41	1	1	1	USRTblock	1	USRT	100	600000	#ff0000	10pct	1	50pct	50pct	3000	500797	503803	500487	57	504119	316	0	1	98
6.1.1	win	2020-04-17	16:49:41	1	1	1	USRTblock	1	USRT	101	600000	#ff0000	10pct	1	50pct	50pct	3000	504122	507136	503803	57	507456	320	0	1	99
6.1.1	win	2020-04-17	16:49:41	1	1	1	USRTblock	1	USRT	102	600000	#ff0000	10pct	1	50pct	50pct	7000	507460	514470	507136	57	514766	296	0	1	100
6.1.1	win	2020-04-17	16:49:41	1	1	1	USRTblock	1	USRT	103	600000	#ff0000	10pct	1	50pct	50pct	4000	514769	518786	514470	57	519075	289	0	1	101
6.1.1	win	2020-04-17	16:49:41	1	1	1	USRTblock	1	USRT	104	600000	#ff0000	10pct	1	50pct	50pct	5000	519079	524085	518786	57	524399	314	0	1	102
6.1.1	win	2020-04-17	16:49:41	1	1	1	USRTblock	1	USRT	105	600000	#ff0000	10pct	1	50pct	50pct	8000	524402	532418	524085	57	532688	270	0	1	103
6.1.1	win	2020-04-17	16:49:41	1	1	1	USRTblock	1	USRT	106	600000	#ff0000	10pct	1	50pct	50pct	7000	532691	539700	532418	57	540011	311	0	1	104
6.1.1	win	2020-04-17	16:49:41	1	1	1	USRTblock	1	USRT	107	600000	#ff0000	10pct	1	50pct	50pct	7000	540015	547033	539700	57	547324	291	0	1	105
6.1.1	win	2020-04-17	16:49:41	1	1	1	USRTblock	1	USRT	108	600000	#ff0000	10pct	1	50pct	50pct	5000	547328	552349	547033	57	552726	377	0	1	106
6.1.1	win	2020-04-17	16:49:41	1	1	1	USRTblock	1	USRT	109	600000	#ff0000	10pct	1	50pct	50pct	2000	552730	554748	552349	57	555148	400	0	1	107
6.1.1	win	2020-04-17	16:49:41	1	1	1	USRTblock	1	USRT	110	600000	#ff0000	10pct	1	50pct	50pct	6000	555151	561165	554748	57	561496	331	0	1	108
6.1.1	win	2020-04-17	16:49:41	1	1	1	USRTblock	1	USRT	111	600000	#ff0000	10pct	1	50pct	50pct	7000	561499	568515	561165	57	568870	355	0	1	109
6.1.1	win	2020-04-17	16:49:41	1	1	1	USRTblock	1	USRT	112	600000	#ff0000	10pct	1	50pct	50pct	4000	568874	572880	568515	57	573216	336	0	1	110
6.1.1	win	2020-04-17	16:49:41	1	1	1	USRTblock	1	USRT	113	600000	#ff0000	10pct	1	50pct	50pct	4000	573220	577229	572880	57	577601	372	0	1	111
6.1.1	win	2020-04-17	16:49:41	1	1	1	USRTblock	1	USRT	114	600000	#ff0000	10pct	1	50pct	50pct	8000	577605	585613	577229	57	585951	338	0	1	112
6.1.1	win	2020-04-17	16:49:41	1	1	1	USRTblock	1	USRT	115	600000	#ff0000	10pct	1	50pct	50pct	5000	585954	590962	585613	57	591256	294	0	1	113
6.1.1	win	2020-04-17	16:49:41	1	1	1	USRTblock	1	USRT	116	600000	#ff0000	10pct	1	50pct	50pct	2000	591259	593278	590962	57	593577	299	0	1	114
6.1.1	win	2020-04-17	16:49:41	1	1	1	USRTblock	1	USRT	117	600000	#ff0000	10pct	1	50pct	50pct	5000	593582	598594	593278	57	598853	259	0	1	115
6.1.1	win	2020-04-17	16:49:41	1	1	1	USRTblock	1	USRT	118	600000	#ff0000	10pct	1	50pct	50pct	7000	598856	-1	598594	0	598956	0	1	2	116
