build	computer.platform	date	time	subject	group	sessionid	blockcode	blocknum	trialcode	trialnum	testduration	targetcolor	targetsize	fixed	targetx	targety	stiminterval	trialStart	shape.targetcircle.timestamp	lastCircleTimestamp	response	rt_elapsed	rt	EarlyResponse	countEarlyResponses	countResponses
6.1.1	win	2020-04-17	13:27:02	1	1	1	USRTblock	1	USRT	3	600000	#ff0000	10pct	1	50pct	50pct	7000	2560	-1	1831	57	6915	0	1	1	1
6.1.1	win	2020-04-17	13:27:02	1	1	1	USRTblock	1	USRT	4	600000	#ff0000	10pct	1	50pct	50pct	4000	6933	10951	-1	57	11191	240	0	1	2
6.1.1	win	2020-04-17	13:27:02	1	1	1	USRTblock	1	USRT	5	600000	#ff0000	10pct	1	50pct	50pct	6000	11194	17200	10951	57	17558	358	0	1	3
6.1.1	win	2020-04-17	13:27:02	1	1	1	USRTblock	1	USRT	6	600000	#ff0000	10pct	1	50pct	50pct	4000	17562	21583	17200	57	21949	366	0	1	4
6.1.1	win	2020-04-17	13:27:02	1	1	1	USRTblock	1	USRT	7	600000	#ff0000	10pct	1	50pct	50pct	8000	21952	29966	21583	57	30285	319	0	1	5
6.1.1	win	2020-04-17	13:27:02	1	1	1	USRTblock	1	USRT	8	600000	#ff0000	10pct	1	50pct	50pct	4000	30288	34298	29966	57	34625	327	0	1	6
6.1.1	win	2020-04-17	13:27:02	1	1	1	USRTblock	1	USRT	9	600000	#ff0000	10pct	1	50pct	50pct	2000	34629	36648	34298	57	36963	315	0	1	7
6.1.1	win	2020-04-17	13:27:02	1	1	1	USRTblock	1	USRT	10	600000	#ff0000	10pct	1	50pct	50pct	6000	36967	42981	36648	57	43340	359	0	1	8
6.1.1	win	2020-04-17	13:27:02	1	1	1	USRTblock	1	USRT	11	600000	#ff0000	10pct	1	50pct	50pct	4000	43344	47363	42981	57	47699	336	0	1	9
6.1.1	win	2020-04-17	13:27:02	1	1	1	USRTblock	1	USRT	12	600000	#ff0000	10pct	1	50pct	50pct	8000	47703	55713	47363	57	55982	269	0	1	10
6.1.1	win	2020-04-17	13:27:02	1	1	1	USRTblock	1	USRT	13	600000	#ff0000	10pct	1	50pct	50pct	4000	55987	59996	55713	57	60411	415	0	1	11
6.1.1	win	2020-04-17	13:27:02	1	1	1	USRTblock	1	USRT	14	600000	#ff0000	10pct	1	50pct	50pct	8000	60415	68428	59996	57	68807	379	0	1	12
6.1.1	win	2020-04-17	13:27:02	1	1	1	USRTblock	1	USRT	15	600000	#ff0000	10pct	1	50pct	50pct	6000	68811	74828	68428	57	75188	360	0	1	13
6.1.1	win	2020-04-17	13:27:02	1	1	1	USRTblock	1	USRT	16	600000	#ff0000	10pct	1	50pct	50pct	4000	75191	79210	74828	57	79744	534	0	1	14
6.1.1	win	2020-04-17	13:27:02	1	1	1	USRTblock	1	USRT	17	600000	#ff0000	10pct	1	50pct	50pct	6000	79747	85760	79210	57	86089	329	0	1	15
6.1.1	win	2020-04-17	13:27:02	1	1	1	USRTblock	1	USRT	18	600000	#ff0000	10pct	1	50pct	50pct	7000	86093	93109	85760	57	93546	437	0	1	16
6.1.1	win	2020-04-17	13:27:02	1	1	1	USRTblock	1	USRT	19	600000	#ff0000	10pct	1	50pct	50pct	6000	93551	99575	93109	57	99869	294	0	1	17
6.1.1	win	2020-04-17	13:27:02	1	1	1	USRTblock	1	USRT	20	600000	#ff0000	10pct	1	50pct	50pct	5000	99873	104891	99575	57	105301	410	0	1	18
6.1.1	win	2020-04-17	13:27:02	1	1	1	USRTblock	1	USRT	21	600000	#ff0000	10pct	1	50pct	50pct	6000	105305	111324	104891	57	111797	473	0	1	19
6.1.1	win	2020-04-17	13:27:02	1	1	1	USRTblock	1	USRT	22	600000	#ff0000	10pct	1	50pct	50pct	7000	111801	118806	111324	57	119089	283	0	1	20
6.1.1	win	2020-04-17	13:27:02	1	1	1	USRTblock	1	USRT	23	600000	#ff0000	10pct	1	50pct	50pct	2000	119093	121106	118806	57	121413	307	0	1	21
6.1.1	win	2020-04-17	13:27:02	1	1	1	USRTblock	1	USRT	24	600000	#ff0000	10pct	1	50pct	50pct	6000	121418	127439	121106	57	127734	295	0	1	22
6.1.1	win	2020-04-17	13:27:02	1	1	1	USRTblock	1	USRT	25	600000	#ff0000	10pct	1	50pct	50pct	7000	127737	134756	127439	57	134981	225	0	1	23
6.1.1	win	2020-04-17	13:27:02	1	1	1	USRTblock	1	USRT	26	600000	#ff0000	10pct	1	50pct	50pct	4000	134984	139004	134756	57	139267	263	0	1	24
6.1.1	win	2020-04-17	13:27:02	1	1	1	USRTblock	1	USRT	27	600000	#ff0000	10pct	1	50pct	50pct	2000	139270	141287	139004	57	141595	308	0	1	25
6.1.1	win	2020-04-17	13:27:02	1	1	1	USRTblock	1	USRT	28	600000	#ff0000	10pct	1	50pct	50pct	7000	141598	148604	141287	57	148892	288	0	1	26
6.1.1	win	2020-04-17	13:27:02	1	1	1	USRTblock	1	USRT	29	600000	#ff0000	10pct	1	50pct	50pct	2000	148895	150903	148604	57	151268	365	0	1	27
6.1.1	win	2020-04-17	13:27:02	1	1	1	USRTblock	1	USRT	30	600000	#ff0000	10pct	1	50pct	50pct	5000	151271	156286	150903	57	156554	268	0	1	28
6.1.1	win	2020-04-17	13:27:02	1	1	1	USRTblock	1	USRT	31	600000	#ff0000	10pct	1	50pct	50pct	2000	156557	158569	156286	57	158859	290	0	1	29
6.1.1	win	2020-04-17	13:27:02	1	1	1	USRTblock	1	USRT	32	600000	#ff0000	10pct	1	50pct	50pct	5000	158862	163869	158569	57	164185	316	0	1	30
6.1.1	win	2020-04-17	13:27:02	1	1	1	USRTblock	1	USRT	33	600000	#ff0000	10pct	1	50pct	50pct	4000	164190	168201	163869	57	168511	310	0	1	31
6.1.1	win	2020-04-17	13:27:02	1	1	1	USRTblock	1	USRT	34	600000	#ff0000	10pct	1	50pct	50pct	2000	168515	170535	168201	57	170833	298	0	1	32
6.1.1	win	2020-04-17	13:27:02	1	1	1	USRTblock	1	USRT	35	600000	#ff0000	10pct	1	50pct	50pct	4000	170836	174851	170535	57	175112	261	0	1	33
6.1.1	win	2020-04-17	13:27:02	1	1	1	USRTblock	1	USRT	36	600000	#ff0000	10pct	1	50pct	50pct	6000	175115	181134	174851	57	181403	269	0	1	34
6.1.1	win	2020-04-17	13:27:02	1	1	1	USRTblock	1	USRT	37	600000	#ff0000	10pct	1	50pct	50pct	3000	181407	184416	181134	57	184724	308	0	1	35
6.1.1	win	2020-04-17	13:27:02	1	1	1	USRTblock	1	USRT	38	600000	#ff0000	10pct	1	50pct	50pct	2000	184728	186750	184416	57	187086	336	0	1	36
6.1.1	win	2020-04-17	13:27:02	1	1	1	USRTblock	1	USRT	39	600000	#ff0000	10pct	1	50pct	50pct	8000	187090	195099	186750	57	195420	321	0	1	37
6.1.1	win	2020-04-17	13:27:02	1	1	1	USRTblock	1	USRT	40	600000	#ff0000	10pct	1	50pct	50pct	3000	195424	198431	195099	57	198778	347	0	1	38
6.1.1	win	2020-04-17	13:27:02	1	1	1	USRTblock	1	USRT	41	600000	#ff0000	10pct	1	50pct	50pct	4000	198782	202799	198431	57	203093	294	0	1	39
6.1.1	win	2020-04-17	13:27:02	1	1	1	USRTblock	1	USRT	42	600000	#ff0000	10pct	1	50pct	50pct	5000	203097	208115	202799	57	208396	281	0	1	40
6.1.1	win	2020-04-17	13:27:02	1	1	1	USRTblock	1	USRT	43	600000	#ff0000	10pct	1	50pct	50pct	8000	208400	-1	208115	57	215523	0	1	2	41
6.1.1	win	2020-04-17	13:27:02	1	1	1	USRTblock	1	USRT	44	600000	#ff0000	10pct	1	50pct	50pct	6000	215527	221546	-1	57	221839	293	0	2	42
6.1.1	win	2020-04-17	13:27:02	1	1	1	USRTblock	1	USRT	45	600000	#ff0000	10pct	1	50pct	50pct	7000	221843	228862	221546	57	229137	275	0	2	43
6.1.1	win	2020-04-17	13:27:02	1	1	1	USRTblock	1	USRT	46	600000	#ff0000	10pct	1	50pct	50pct	6000	229141	235161	228862	57	235427	266	0	2	44
6.1.1	win	2020-04-17	13:27:02	1	1	1	USRTblock	1	USRT	47	600000	#ff0000	10pct	1	50pct	50pct	4000	235431	239445	235161	57	239818	373	0	2	45
6.1.1	win	2020-04-17	13:27:02	1	1	1	USRTblock	1	USRT	48	600000	#ff0000	10pct	1	50pct	50pct	3000	239821	242827	239445	57	243111	284	0	2	46
6.1.1	win	2020-04-17	13:27:02	1	1	1	USRTblock	1	USRT	49	600000	#ff0000	10pct	1	50pct	50pct	6000	243114	249127	242827	57	249505	378	0	2	47
6.1.1	win	2020-04-17	13:27:02	1	1	1	USRTblock	1	USRT	50	600000	#ff0000	10pct	1	50pct	50pct	6000	249508	255527	249127	57	255855	328	0	2	48
6.1.1	win	2020-04-17	13:27:02	1	1	1	USRTblock	1	USRT	51	600000	#ff0000	10pct	1	50pct	50pct	6000	255859	261875	255527	57	262218	343	0	2	49
6.1.1	win	2020-04-17	13:27:02	1	1	1	USRTblock	1	USRT	52	600000	#ff0000	10pct	1	50pct	50pct	8000	262222	270242	261875	57	270550	308	0	2	50
6.1.1	win	2020-04-17	13:27:02	1	1	1	USRTblock	1	USRT	53	600000	#ff0000	10pct	1	50pct	50pct	6000	270555	276574	270242	57	276895	321	0	2	51
6.1.1	win	2020-04-17	13:27:02	1	1	1	USRTblock	1	USRT	54	600000	#ff0000	10pct	1	50pct	50pct	6000	276899	282907	276574	57	283198	291	0	2	52
6.1.1	win	2020-04-17	13:27:02	1	1	1	USRTblock	1	USRT	55	600000	#ff0000	10pct	1	50pct	50pct	4000	283201	287206	282907	57	287493	287	0	2	53
6.1.1	win	2020-04-17	13:27:02	1	1	1	USRTblock	1	USRT	56	600000	#ff0000	10pct	1	50pct	50pct	3000	287498	290506	287206	57	290845	339	0	2	54
6.1.1	win	2020-04-17	13:27:02	1	1	1	USRTblock	1	USRT	57	600000	#ff0000	10pct	1	50pct	50pct	7000	290848	297855	290506	57	298150	295	0	2	55
6.1.1	win	2020-04-17	13:27:02	1	1	1	USRTblock	1	USRT	58	600000	#ff0000	10pct	1	50pct	50pct	4000	298153	302171	297855	57	302428	257	0	2	56
6.1.1	win	2020-04-17	13:27:02	1	1	1	USRTblock	1	USRT	59	600000	#ff0000	10pct	1	50pct	50pct	5000	302431	307438	302171	57	307791	353	0	2	57
6.1.1	win	2020-04-17	13:27:02	1	1	1	USRTblock	1	USRT	60	600000	#ff0000	10pct	1	50pct	50pct	7000	307794	314804	307438	57	315051	247	0	2	58
6.1.1	win	2020-04-17	13:27:02	1	1	1	USRTblock	1	USRT	61	600000	#ff0000	10pct	1	50pct	50pct	4000	315055	319070	314804	57	319396	326	0	2	59
6.1.1	win	2020-04-17	13:27:02	1	1	1	USRTblock	1	USRT	62	600000	#ff0000	10pct	1	50pct	50pct	6000	319401	325419	319070	57	325675	256	0	2	60
6.1.1	win	2020-04-17	13:27:02	1	1	1	USRTblock	1	USRT	63	600000	#ff0000	10pct	1	50pct	50pct	7000	325679	332685	325419	57	332968	283	0	2	61
6.1.1	win	2020-04-17	13:27:02	1	1	1	USRTblock	1	USRT	64	600000	#ff0000	10pct	1	50pct	50pct	5000	332971	337985	332685	57	338402	417	0	2	62
6.1.1	win	2020-04-17	13:27:02	1	1	1	USRTblock	1	USRT	65	600000	#ff0000	10pct	1	50pct	50pct	7000	338405	345418	337985	57	345841	423	0	2	63
6.1.1	win	2020-04-17	13:27:02	1	1	1	USRTblock	1	USRT	66	600000	#ff0000	10pct	1	50pct	50pct	5000	345844	350850	345418	57	351253	403	0	2	64
6.1.1	win	2020-04-17	13:27:02	1	1	1	USRTblock	1	USRT	67	600000	#ff0000	10pct	1	50pct	50pct	6000	351257	357266	350850	57	357602	336	0	2	65
6.1.1	win	2020-04-17	13:27:02	1	1	1	USRTblock	1	USRT	68	600000	#ff0000	10pct	1	50pct	50pct	4000	357606	361616	357266	57	362046	430	0	2	66
6.1.1	win	2020-04-17	13:27:02	1	1	1	USRTblock	1	USRT	69	600000	#ff0000	10pct	1	50pct	50pct	4000	362050	366065	361616	57	366385	320	0	2	67
6.1.1	win	2020-04-17	13:27:02	1	1	1	USRTblock	1	USRT	70	600000	#ff0000	10pct	1	50pct	50pct	3000	366389	369398	366065	57	369692	294	0	2	68
6.1.1	win	2020-04-17	13:27:02	1	1	1	USRTblock	1	USRT	71	600000	#ff0000	10pct	1	50pct	50pct	5000	369695	374714	369398	57	374981	267	0	2	69
6.1.1	win	2020-04-17	13:27:02	1	1	1	USRTblock	1	USRT	72	600000	#ff0000	10pct	1	50pct	50pct	6000	374986	380998	374714	57	381262	264	0	2	70
6.1.1	win	2020-04-17	13:27:02	1	1	1	USRTblock	1	USRT	73	600000	#ff0000	10pct	1	50pct	50pct	2000	381266	383279	380998	57	383610	331	0	2	71
6.1.1	win	2020-04-17	13:27:02	1	1	1	USRTblock	1	USRT	74	600000	#ff0000	10pct	1	50pct	50pct	7000	383614	390629	383279	57	391077	448	0	2	72
6.1.1	win	2020-04-17	13:27:02	1	1	1	USRTblock	1	USRT	75	600000	#ff0000	10pct	1	50pct	50pct	6000	391081	397096	390629	57	397510	414	0	2	73
6.1.1	win	2020-04-17	13:27:02	1	1	1	USRTblock	1	USRT	76	600000	#ff0000	10pct	1	50pct	50pct	2000	397514	399528	397096	57	399983	455	0	2	74
6.1.1	win	2020-04-17	13:27:02	1	1	1	USRTblock	1	USRT	77	600000	#ff0000	10pct	1	50pct	50pct	3000	399991	403011	399528	57	403517	506	0	2	75
6.1.1	win	2020-04-17	13:27:02	1	1	1	USRTblock	1	USRT	78	600000	#ff0000	10pct	1	50pct	50pct	8000	403521	411528	403011	57	411785	257	0	2	76
6.1.1	win	2020-04-17	13:27:02	1	1	1	USRTblock	1	USRT	79	600000	#ff0000	10pct	1	50pct	50pct	4000	411789	415810	411528	57	416124	314	0	2	77
6.1.1	win	2020-04-17	13:27:02	1	1	1	USRTblock	1	USRT	80	600000	#ff0000	10pct	1	50pct	50pct	6000	416128	422143	415810	57	422398	255	0	2	78
6.1.1	win	2020-04-17	13:27:02	1	1	1	USRTblock	1	USRT	81	600000	#ff0000	10pct	1	50pct	50pct	6000	422402	428409	422143	57	428670	261	0	2	79
6.1.1	win	2020-04-17	13:27:02	1	1	1	USRTblock	1	USRT	82	600000	#ff0000	10pct	1	50pct	50pct	3000	428674	431692	428409	57	431992	300	0	2	80
6.1.1	win	2020-04-17	13:27:02	1	1	1	USRTblock	1	USRT	83	600000	#ff0000	10pct	1	50pct	50pct	6000	431996	438008	431692	57	438336	328	0	2	81
6.1.1	win	2020-04-17	13:27:02	1	1	1	USRTblock	1	USRT	84	600000	#ff0000	10pct	1	50pct	50pct	3000	438341	441357	438008	57	441707	350	0	2	82
6.1.1	win	2020-04-17	13:27:02	1	1	1	USRTblock	1	USRT	85	600000	#ff0000	10pct	1	50pct	50pct	6000	441711	447724	441357	57	447994	270	0	2	83
6.1.1	win	2020-04-17	13:27:02	1	1	1	USRTblock	1	USRT	86	600000	#ff0000	10pct	1	50pct	50pct	3000	447997	451007	447724	57	451359	352	0	2	84
6.1.1	win	2020-04-17	13:27:02	1	1	1	USRTblock	1	USRT	87	600000	#ff0000	10pct	1	50pct	50pct	4000	451364	455373	451007	57	455671	298	0	2	85
6.1.1	win	2020-04-17	13:27:02	1	1	1	USRTblock	1	USRT	88	600000	#ff0000	10pct	1	50pct	50pct	6000	455675	461689	455373	57	461985	296	0	2	86
6.1.1	win	2020-04-17	13:27:02	1	1	1	USRTblock	1	USRT	89	600000	#ff0000	10pct	1	50pct	50pct	3000	461989	465005	461689	57	465294	289	0	2	87
6.1.1	win	2020-04-17	13:27:02	1	1	1	USRTblock	1	USRT	90	600000	#ff0000	10pct	1	50pct	50pct	7000	465297	472304	465005	57	472599	295	0	2	88
6.1.1	win	2020-04-17	13:27:02	1	1	1	USRTblock	1	USRT	91	600000	#ff0000	10pct	1	50pct	50pct	2000	472602	474621	472304	57	474938	317	0	2	89
6.1.1	win	2020-04-17	13:27:02	1	1	1	USRTblock	1	USRT	92	600000	#ff0000	10pct	1	50pct	50pct	3000	474941	477954	474621	57	478238	284	0	2	90
6.1.1	win	2020-04-17	13:27:02	1	1	1	USRTblock	1	USRT	93	600000	#ff0000	10pct	1	50pct	50pct	6000	478242	484254	477954	57	484525	271	0	2	91
6.1.1	win	2020-04-17	13:27:02	1	1	1	USRTblock	1	USRT	94	600000	#ff0000	10pct	1	50pct	50pct	5000	484529	489537	484254	57	489904	367	0	2	92
6.1.1	win	2020-04-17	13:27:02	1	1	1	USRTblock	1	USRT	95	600000	#ff0000	10pct	1	50pct	50pct	2000	489908	491919	489537	57	492313	394	0	2	93
6.1.1	win	2020-04-17	13:27:02	1	1	1	USRTblock	1	USRT	96	600000	#ff0000	10pct	1	50pct	50pct	6000	492317	498335	491919	57	498633	298	0	2	94
6.1.1	win	2020-04-17	13:27:02	1	1	1	USRTblock	1	USRT	97	600000	#ff0000	10pct	1	50pct	50pct	7000	498637	505651	498335	57	505920	269	0	2	95
6.1.1	win	2020-04-17	13:27:02	1	1	1	USRTblock	1	USRT	98	600000	#ff0000	10pct	1	50pct	50pct	7000	505923	512934	505651	57	513233	299	0	2	96
6.1.1	win	2020-04-17	13:27:02	1	1	1	USRTblock	1	USRT	99	600000	#ff0000	10pct	1	50pct	50pct	7000	513237	520250	512934	57	520557	307	0	2	97
6.1.1	win	2020-04-17	13:27:02	1	1	1	USRTblock	1	USRT	100	600000	#ff0000	10pct	1	50pct	50pct	2000	520562	522582	520250	57	522985	403	0	2	98
6.1.1	win	2020-04-17	13:27:02	1	1	1	USRTblock	1	USRT	101	600000	#ff0000	10pct	1	50pct	50pct	4000	522988	526999	522582	57	527534	535	0	2	99
6.1.1	win	2020-04-17	13:27:02	1	1	1	USRTblock	1	USRT	102	600000	#ff0000	10pct	1	50pct	50pct	6000	527538	533549	526999	57	533805	256	0	2	100
6.1.1	win	2020-04-17	13:27:02	1	1	1	USRTblock	1	USRT	103	600000	#ff0000	10pct	1	50pct	50pct	4000	533809	537814	533549	57	538167	353	0	2	101
6.1.1	win	2020-04-17	13:27:02	1	1	1	USRTblock	1	USRT	104	600000	#ff0000	10pct	1	50pct	50pct	7000	538171	545181	537814	57	545431	250	0	2	102
6.1.1	win	2020-04-17	13:27:02	1	1	1	USRTblock	1	USRT	105	600000	#ff0000	10pct	1	50pct	50pct	8000	545435	553447	545181	57	553725	278	0	2	103
6.1.1	win	2020-04-17	13:27:02	1	1	1	USRTblock	1	USRT	106	600000	#ff0000	10pct	1	50pct	50pct	6000	553729	559746	553447	57	560096	350	0	2	104
6.1.1	win	2020-04-17	13:27:02	1	1	1	USRTblock	1	USRT	107	600000	#ff0000	10pct	1	50pct	50pct	4000	560099	564112	559746	57	564402	290	0	2	105
6.1.1	win	2020-04-17	13:27:02	1	1	1	USRTblock	1	USRT	108	600000	#ff0000	10pct	1	50pct	50pct	4000	564405	568412	564112	57	568724	312	0	2	106
6.1.1	win	2020-04-17	13:27:02	1	1	1	USRTblock	1	USRT	109	600000	#ff0000	10pct	1	50pct	50pct	3000	568727	571745	568412	57	572066	321	0	2	107
6.1.1	win	2020-04-17	13:27:02	1	1	1	USRTblock	1	USRT	110	600000	#ff0000	10pct	1	50pct	50pct	2000	572069	574077	571745	57	574394	317	0	2	108
6.1.1	win	2020-04-17	13:27:02	1	1	1	USRTblock	1	USRT	111	600000	#ff0000	10pct	1	50pct	50pct	7000	574397	581410	574077	57	581680	270	0	2	109
6.1.1	win	2020-04-17	13:27:02	1	1	1	USRTblock	1	USRT	112	600000	#ff0000	10pct	1	50pct	50pct	8000	581683	589693	581410	57	589933	240	0	2	110
6.1.1	win	2020-04-17	13:27:02	1	1	1	USRTblock	1	USRT	113	600000	#ff0000	10pct	1	50pct	50pct	6000	589937	595943	589693	57	596202	259	0	2	111
6.1.1	win	2020-04-17	13:27:02	1	1	1	USRTblock	1	USRT	114	600000	#ff0000	10pct	1	50pct	50pct	4000	596206	600225	595943	57	600499	274	0	2	112
6.1.1	win	2020-04-17	13:27:02	1	1	1	USRTblock	1	USRT	115	600000	#ff0000	10pct	1	50pct	50pct	7000	600503	-1	600225	0	600575	0	1	3	113
