build	computer.platform	date	time	subject	group	sessionid	blockcode	blocknum	trialcode	trialnum	testduration	targetcolor	targetsize	fixed	targetx	targety	stiminterval	trialStart	shape.targetcircle.timestamp	lastCircleTimestamp	response	rt_elapsed	rt	EarlyResponse	countEarlyResponses	countResponses
6.1.1	win	2020-04-15	22:32:20	1	1	1	USRTblock	1	USRT	3	600000	#ff0000	10pct	1	50pct	50pct	8000	2732	10739	2003	57	10981	242	0	0	1
6.1.1	win	2020-04-15	22:32:20	1	1	1	USRTblock	1	USRT	4	600000	#ff0000	10pct	1	50pct	50pct	3000	10993	14005	10739	57	14261	256	0	0	2
6.1.1	win	2020-04-15	22:32:20	1	1	1	USRTblock	1	USRT	5	600000	#ff0000	10pct	1	50pct	50pct	8000	14265	22272	14005	57	22533	261	0	0	3
6.1.1	win	2020-04-15	22:32:20	1	1	1	USRTblock	1	USRT	6	600000	#ff0000	10pct	1	50pct	50pct	4000	22536	26553	22272	57	26953	400	0	0	4
6.1.1	win	2020-04-15	22:32:20	1	1	1	USRTblock	1	USRT	7	600000	#ff0000	10pct	1	50pct	50pct	4000	26956	30970	26553	57	31291	321	0	0	5
6.1.1	win	2020-04-15	22:32:20	1	1	1	USRTblock	1	USRT	8	600000	#ff0000	10pct	1	50pct	50pct	6000	31294	37303	30970	57	37634	331	0	0	6
6.1.1	win	2020-04-15	22:32:20	1	1	1	USRTblock	1	USRT	9	600000	#ff0000	10pct	1	50pct	50pct	5000	37637	-1	37303	57	42547	0	1	1	7
6.1.1	win	2020-04-15	22:32:20	1	1	1	USRTblock	1	USRT	10	600000	#ff0000	10pct	1	50pct	50pct	5000	42551	47568	-1	57	47927	359	0	1	8
6.1.1	win	2020-04-15	22:32:20	1	1	1	USRTblock	1	USRT	11	600000	#ff0000	10pct	1	50pct	50pct	2000	47931	49951	47568	57	50304	353	0	1	9
6.1.1	win	2020-04-15	22:32:20	1	1	1	USRTblock	1	USRT	12	600000	#ff0000	10pct	1	50pct	50pct	8000	50307	58317	49951	57	58671	354	0	1	10
6.1.1	win	2020-04-15	22:32:20	1	1	1	USRTblock	1	USRT	13	600000	#ff0000	10pct	1	50pct	50pct	6000	58674	64683	58317	57	65187	504	0	1	11
6.1.1	win	2020-04-15	22:32:20	1	1	1	USRTblock	1	USRT	14	600000	#ff0000	10pct	1	50pct	50pct	6000	65190	71199	64683	57	71515	316	0	1	12
6.1.1	win	2020-04-15	22:32:20	1	1	1	USRTblock	1	USRT	15	600000	#ff0000	10pct	1	50pct	50pct	2000	71518	73532	71199	57	73982	450	0	1	13
6.1.1	win	2020-04-15	22:32:20	1	1	1	USRTblock	1	USRT	16	600000	#ff0000	10pct	1	50pct	50pct	4000	73988	77999	73532	57	78302	303	0	1	14
6.1.1	win	2020-04-15	22:32:20	1	1	1	USRTblock	1	USRT	17	600000	#ff0000	10pct	1	50pct	50pct	3000	78305	81315	77999	57	81590	275	0	1	15
6.1.1	win	2020-04-15	22:32:20	1	1	1	USRTblock	1	USRT	18	600000	#ff0000	10pct	1	50pct	50pct	7000	81594	88614	81315	57	89078	464	0	1	16
6.1.1	win	2020-04-15	22:32:20	1	1	1	USRTblock	1	USRT	19	600000	#ff0000	10pct	1	50pct	50pct	2000	89081	91097	88614	57	91479	382	0	1	17
6.1.1	win	2020-04-15	22:32:20	1	1	1	USRTblock	1	USRT	20	600000	#ff0000	10pct	1	50pct	50pct	2000	91484	93497	91097	57	93779	282	0	1	18
6.1.1	win	2020-04-15	22:32:20	1	1	1	USRTblock	1	USRT	21	600000	#ff0000	10pct	1	50pct	50pct	6000	93782	99797	93497	57	100097	300	0	1	19
6.1.1	win	2020-04-15	22:32:20	1	1	1	USRTblock	1	USRT	22	600000	#ff0000	10pct	1	50pct	50pct	2000	100101	102112	99797	57	102375	263	0	1	20
6.1.1	win	2020-04-15	22:32:20	1	1	1	USRTblock	1	USRT	23	600000	#ff0000	10pct	1	50pct	50pct	5000	102378	107395	102112	57	107643	248	0	1	21
6.1.1	win	2020-04-15	22:32:20	1	1	1	USRTblock	1	USRT	24	600000	#ff0000	10pct	1	50pct	50pct	5000	107647	112661	107395	57	112994	333	0	1	22
6.1.1	win	2020-04-15	22:32:20	1	1	1	USRTblock	1	USRT	25	600000	#ff0000	10pct	1	50pct	50pct	2000	112997	115011	112661	57	115282	271	0	1	23
6.1.1	win	2020-04-15	22:32:20	1	1	1	USRTblock	1	USRT	26	600000	#ff0000	10pct	1	50pct	50pct	7000	115286	122294	115011	57	122669	375	0	1	24
6.1.1	win	2020-04-15	22:32:20	1	1	1	USRTblock	1	USRT	27	600000	#ff0000	10pct	1	50pct	50pct	2000	122672	124677	122294	57	124969	292	0	1	25
6.1.1	win	2020-04-15	22:32:20	1	1	1	USRTblock	1	USRT	28	600000	#ff0000	10pct	1	50pct	50pct	8000	124973	-1	124677	57	127625	0	1	2	26
6.1.1	win	2020-04-15	22:32:20	1	1	1	USRTblock	1	USRT	29	600000	#ff0000	10pct	1	50pct	50pct	7000	127628	134643	-1	57	134918	275	0	2	27
6.1.1	win	2020-04-15	22:32:20	1	1	1	USRTblock	1	USRT	30	600000	#ff0000	10pct	1	50pct	50pct	8000	134922	142943	134643	57	143243	300	0	2	28
6.1.1	win	2020-04-15	22:32:20	1	1	1	USRTblock	1	USRT	31	600000	#ff0000	10pct	1	50pct	50pct	7000	143247	150259	142943	57	150531	272	0	2	29
6.1.1	win	2020-04-15	22:32:20	1	1	1	USRTblock	1	USRT	32	600000	#ff0000	10pct	1	50pct	50pct	5000	150535	155541	150259	57	155787	246	0	2	30
6.1.1	win	2020-04-15	22:32:20	1	1	1	USRTblock	1	USRT	33	600000	#ff0000	10pct	1	50pct	50pct	6000	155791	161807	155541	57	162062	255	0	2	31
6.1.1	win	2020-04-15	22:32:20	1	1	1	USRTblock	1	USRT	34	600000	#ff0000	10pct	1	50pct	50pct	7000	162066	169073	161807	57	169370	297	0	2	32
6.1.1	win	2020-04-15	22:32:20	1	1	1	USRTblock	1	USRT	35	600000	#ff0000	10pct	1	50pct	50pct	3000	169373	172388	169073	57	172712	324	0	2	33
6.1.1	win	2020-04-15	22:32:20	1	1	1	USRTblock	1	USRT	36	600000	#ff0000	10pct	1	50pct	50pct	7000	172715	179722	172388	57	180077	355	0	2	34
6.1.1	win	2020-04-15	22:32:20	1	1	1	USRTblock	1	USRT	37	600000	#ff0000	10pct	1	50pct	50pct	8000	180081	188088	179722	57	188371	283	0	2	35
6.1.1	win	2020-04-15	22:32:20	1	1	1	USRTblock	1	USRT	38	600000	#ff0000	10pct	1	50pct	50pct	7000	188376	195387	188088	57	195661	274	0	2	36
6.1.1	win	2020-04-15	22:32:20	1	1	1	USRTblock	1	USRT	39	600000	#ff0000	10pct	1	50pct	50pct	3000	195664	198670	195387	57	199019	349	0	2	37
6.1.1	win	2020-04-15	22:32:20	1	1	1	USRTblock	1	USRT	40	600000	#ff0000	10pct	1	50pct	50pct	3000	199023	202036	198670	57	202370	334	0	2	38
6.1.1	win	2020-04-15	22:32:20	1	1	1	USRTblock	1	USRT	41	600000	#ff0000	10pct	1	50pct	50pct	7000	202374	209386	202036	57	209648	262	0	2	39
6.1.1	win	2020-04-15	22:32:20	1	1	1	USRTblock	1	USRT	42	600000	#ff0000	10pct	1	50pct	50pct	4000	209652	213668	209386	57	213986	318	0	2	40
6.1.1	win	2020-04-15	22:32:20	1	1	1	USRTblock	1	USRT	43	600000	#ff0000	10pct	1	50pct	50pct	4000	213990	218001	213668	57	218314	313	0	2	41
6.1.1	win	2020-04-15	22:32:20	1	1	1	USRTblock	1	USRT	44	600000	#ff0000	10pct	1	50pct	50pct	8000	218317	226334	218001	57	226681	347	0	2	42
6.1.1	win	2020-04-15	22:32:20	1	1	1	USRTblock	1	USRT	45	600000	#ff0000	10pct	1	50pct	50pct	6000	226685	232700	226334	57	232997	297	0	2	43
6.1.1	win	2020-04-15	22:32:20	1	1	1	USRTblock	1	USRT	46	600000	#ff0000	10pct	1	50pct	50pct	4000	233000	237016	232700	57	237308	292	0	2	44
6.1.1	win	2020-04-15	22:32:20	1	1	1	USRTblock	1	USRT	47	600000	#ff0000	10pct	1	50pct	50pct	2000	237312	239333	237016	57	239658	325	0	2	45
6.1.1	win	2020-04-15	22:32:20	1	1	1	USRTblock	1	USRT	48	600000	#ff0000	10pct	1	50pct	50pct	2000	239663	241682	239333	57	241992	310	0	2	46
6.1.1	win	2020-04-15	22:32:20	1	1	1	USRTblock	1	USRT	49	600000	#ff0000	10pct	1	50pct	50pct	3000	241995	245015	241682	57	245259	244	0	2	47
6.1.1	win	2020-04-15	22:32:20	1	1	1	USRTblock	1	USRT	50	600000	#ff0000	10pct	1	50pct	50pct	6000	245263	251282	245015	57	251620	338	0	2	48
6.1.1	win	2020-04-15	22:32:20	1	1	1	USRTblock	1	USRT	51	600000	#ff0000	10pct	1	50pct	50pct	7000	251623	258631	251282	57	258886	255	0	2	49
6.1.1	win	2020-04-15	22:32:20	1	1	1	USRTblock	1	USRT	52	600000	#ff0000	10pct	1	50pct	50pct	4000	258889	262897	258631	57	263168	271	0	2	50
6.1.1	win	2020-04-15	22:32:20	1	1	1	USRTblock	1	USRT	53	600000	#ff0000	10pct	1	50pct	50pct	7000	263172	270180	262897	57	270493	313	0	2	51
6.1.1	win	2020-04-15	22:32:20	1	1	1	USRTblock	1	USRT	54	600000	#ff0000	10pct	1	50pct	50pct	5000	270496	275512	270180	57	275882	370	0	2	52
6.1.1	win	2020-04-15	22:32:20	1	1	1	USRTblock	1	USRT	55	600000	#ff0000	10pct	1	50pct	50pct	4000	275885	279895	275512	57	280190	295	0	2	53
6.1.1	win	2020-04-15	22:32:20	1	1	1	USRTblock	1	USRT	56	600000	#ff0000	10pct	1	50pct	50pct	7000	280193	287212	279895	57	287518	306	0	2	54
6.1.1	win	2020-04-15	22:32:20	1	1	1	USRTblock	1	USRT	57	600000	#ff0000	10pct	1	50pct	50pct	5000	287521	292527	287212	57	292787	260	0	2	55
6.1.1	win	2020-04-15	22:32:20	1	1	1	USRTblock	1	USRT	58	600000	#ff0000	10pct	1	50pct	50pct	6000	292791	298810	292527	57	299056	246	0	2	56
6.1.1	win	2020-04-15	22:32:20	1	1	1	USRTblock	1	USRT	59	600000	#ff0000	10pct	1	50pct	50pct	8000	299060	307076	298810	57	307360	284	0	2	57
6.1.1	win	2020-04-15	22:32:20	1	1	1	USRTblock	1	USRT	60	600000	#ff0000	10pct	1	50pct	50pct	3000	307364	310375	307076	57	310712	337	0	2	58
6.1.1	win	2020-04-15	22:32:20	1	1	1	USRTblock	1	USRT	61	600000	#ff0000	10pct	1	50pct	50pct	5000	310716	315725	310375	57	315992	267	0	2	59
6.1.1	win	2020-04-15	22:32:20	1	1	1	USRTblock	1	USRT	62	600000	#ff0000	10pct	1	50pct	50pct	7000	315995	323007	315725	57	323361	354	0	2	60
6.1.1	win	2020-04-15	22:32:20	1	1	1	USRTblock	1	USRT	63	600000	#ff0000	10pct	1	50pct	50pct	7000	323365	330374	323007	57	330655	281	0	2	61
6.1.1	win	2020-04-15	22:32:20	1	1	1	USRTblock	1	USRT	64	600000	#ff0000	10pct	1	50pct	50pct	4000	330659	334673	330374	57	335086	413	0	2	62
6.1.1	win	2020-04-15	22:32:20	1	1	1	USRTblock	1	USRT	65	600000	#ff0000	10pct	1	50pct	50pct	4000	335090	339106	334673	57	339446	340	0	2	63
6.1.1	win	2020-04-15	22:32:20	1	1	1	USRTblock	1	USRT	66	600000	#ff0000	10pct	1	50pct	50pct	4000	339450	343471	339106	57	343799	328	0	2	64
6.1.1	win	2020-04-15	22:32:20	1	1	1	USRTblock	1	USRT	67	600000	#ff0000	10pct	1	50pct	50pct	3000	343803	346821	343471	57	347179	358	0	2	65
6.1.1	win	2020-04-15	22:32:20	1	1	1	USRTblock	1	USRT	68	600000	#ff0000	10pct	1	50pct	50pct	6000	347183	353188	346821	57	353478	290	0	2	66
6.1.1	win	2020-04-15	22:32:20	1	1	1	USRTblock	1	USRT	69	600000	#ff0000	10pct	1	50pct	50pct	3000	353481	356487	353188	57	356756	269	0	2	67
6.1.1	win	2020-04-15	22:32:20	1	1	1	USRTblock	1	USRT	70	600000	#ff0000	10pct	1	50pct	50pct	2000	356760	358770	356487	57	359070	300	0	2	68
6.1.1	win	2020-04-15	22:32:20	1	1	1	USRTblock	1	USRT	71	600000	#ff0000	10pct	1	50pct	50pct	6000	359074	365086	358770	57	365459	373	0	2	69
6.1.1	win	2020-04-15	22:32:20	1	1	1	USRTblock	1	USRT	72	600000	#ff0000	10pct	1	50pct	50pct	8000	365463	373469	365086	57	373827	358	0	2	70
6.1.1	win	2020-04-15	22:32:20	1	1	1	USRTblock	1	USRT	73	600000	#ff0000	10pct	1	50pct	50pct	7000	373832	380853	373469	57	381175	322	0	2	71
6.1.1	win	2020-04-15	22:32:20	1	1	1	USRTblock	1	USRT	74	600000	#ff0000	10pct	1	50pct	50pct	6000	381179	-1	380853	57	385333	0	1	3	72
6.1.1	win	2020-04-15	22:32:20	1	1	1	USRTblock	1	USRT	75	600000	#ff0000	10pct	1	50pct	50pct	3000	385336	388351	-1	57	388627	276	0	3	73
6.1.1	win	2020-04-15	22:32:20	1	1	1	USRTblock	1	USRT	76	600000	#ff0000	10pct	1	50pct	50pct	8000	388630	396650	388351	57	396951	301	0	3	74
6.1.1	win	2020-04-15	22:32:20	1	1	1	USRTblock	1	USRT	77	600000	#ff0000	10pct	1	50pct	50pct	3000	396955	399967	396650	57	400275	308	0	3	75
6.1.1	win	2020-04-15	22:32:20	1	1	1	USRTblock	1	USRT	78	600000	#ff0000	10pct	1	50pct	50pct	2000	400279	402299	399967	57	402969	670	0	3	76
6.1.1	win	2020-04-15	22:32:20	1	1	1	USRTblock	1	USRT	79	600000	#ff0000	10pct	1	50pct	50pct	8000	402972	410982	402299	57	411335	353	0	3	77
6.1.1	win	2020-04-15	22:32:20	1	1	1	USRTblock	1	USRT	80	600000	#ff0000	10pct	1	50pct	50pct	6000	411338	417348	410982	57	417636	288	0	3	78
6.1.1	win	2020-04-15	22:32:20	1	1	1	USRTblock	1	USRT	81	600000	#ff0000	10pct	1	50pct	50pct	4000	417639	421648	417348	57	421958	310	0	3	79
6.1.1	win	2020-04-15	22:32:20	1	1	1	USRTblock	1	USRT	82	600000	#ff0000	10pct	1	50pct	50pct	3000	421962	424981	421648	57	425318	337	0	3	80
6.1.1	win	2020-04-15	22:32:20	1	1	1	USRTblock	1	USRT	83	600000	#ff0000	10pct	1	50pct	50pct	6000	425321	431330	424981	57	431587	257	0	3	81
6.1.1	win	2020-04-15	22:32:20	1	1	1	USRTblock	1	USRT	84	600000	#ff0000	10pct	1	50pct	50pct	6000	431590	437596	431330	57	437863	267	0	3	82
6.1.1	win	2020-04-15	22:32:20	1	1	1	USRTblock	1	USRT	85	600000	#ff0000	10pct	1	50pct	50pct	2000	437866	439879	437596	57	440226	347	0	3	83
6.1.1	win	2020-04-15	22:32:20	1	1	1	USRTblock	1	USRT	86	600000	#ff0000	10pct	1	50pct	50pct	7000	440230	447245	439879	57	447565	320	0	3	84
6.1.1	win	2020-04-15	22:32:20	1	1	1	USRTblock	1	USRT	87	600000	#ff0000	10pct	1	50pct	50pct	3000	447569	450577	447245	57	450886	309	0	3	85
6.1.1	win	2020-04-15	22:32:20	1	1	1	USRTblock	1	USRT	88	600000	#ff0000	10pct	1	50pct	50pct	8000	450890	458911	450577	57	459191	280	0	3	86
6.1.1	win	2020-04-15	22:32:20	1	1	1	USRTblock	1	USRT	89	600000	#ff0000	10pct	1	50pct	50pct	4000	459194	463210	458911	57	463544	334	0	3	87
6.1.1	win	2020-04-15	22:32:20	1	1	1	USRTblock	1	USRT	90	600000	#ff0000	10pct	1	50pct	50pct	6000	463548	469560	463210	57	469912	352	0	3	88
6.1.1	win	2020-04-15	22:32:20	1	1	1	USRTblock	1	USRT	91	600000	#ff0000	10pct	1	50pct	50pct	2000	469915	471925	469560	57	472235	310	0	3	89
6.1.1	win	2020-04-15	22:32:20	1	1	1	USRTblock	1	USRT	92	600000	#ff0000	10pct	1	50pct	50pct	4000	472238	476258	471925	57	476585	327	0	3	90
6.1.1	win	2020-04-15	22:32:20	1	1	1	USRTblock	1	USRT	93	600000	#ff0000	10pct	1	50pct	50pct	2000	476589	478608	476258	57	478989	381	0	3	91
6.1.1	win	2020-04-15	22:32:20	1	1	1	USRTblock	1	USRT	94	600000	#ff0000	10pct	1	50pct	50pct	6000	478992	485008	478608	57	485296	288	0	3	92
6.1.1	win	2020-04-15	22:32:20	1	1	1	USRTblock	1	USRT	95	600000	#ff0000	10pct	1	50pct	50pct	2000	485300	487307	485008	57	487680	373	0	3	93
6.1.1	win	2020-04-15	22:32:20	1	1	1	USRTblock	1	USRT	96	600000	#ff0000	10pct	1	50pct	50pct	7000	487684	494690	487307	57	494956	266	0	3	94
6.1.1	win	2020-04-15	22:32:20	1	1	1	USRTblock	1	USRT	97	600000	#ff0000	10pct	1	50pct	50pct	3000	494960	497973	494690	57	498339	366	0	3	95
6.1.1	win	2020-04-15	22:32:20	1	1	1	USRTblock	1	USRT	98	600000	#ff0000	10pct	1	50pct	50pct	8000	498342	506356	497973	57	506684	328	0	3	96
6.1.1	win	2020-04-15	22:32:20	1	1	1	USRTblock	1	USRT	99	600000	#ff0000	10pct	1	50pct	50pct	3000	506687	509705	506356	57	510058	353	0	3	97
6.1.1	win	2020-04-15	22:32:20	1	1	1	USRTblock	1	USRT	100	600000	#ff0000	10pct	1	50pct	50pct	7000	510061	517071	509705	57	517505	434	0	3	98
6.1.1	win	2020-04-15	22:32:20	1	1	1	USRTblock	1	USRT	101	600000	#ff0000	10pct	1	50pct	50pct	6000	517509	523521	517071	57	523822	301	0	3	99
6.1.1	win	2020-04-15	22:32:20	1	1	1	USRTblock	1	USRT	102	600000	#ff0000	10pct	1	50pct	50pct	2000	523827	525837	523521	57	526143	306	0	3	100
6.1.1	win	2020-04-15	22:32:20	1	1	1	USRTblock	1	USRT	103	600000	#ff0000	10pct	1	50pct	50pct	6000	526146	532153	525837	57	532442	289	0	3	101
6.1.1	win	2020-04-15	22:32:20	1	1	1	USRTblock	1	USRT	104	600000	#ff0000	10pct	1	50pct	50pct	7000	532446	539452	532153	57	539720	268	0	3	102
6.1.1	win	2020-04-15	22:32:20	1	1	1	USRTblock	1	USRT	105	600000	#ff0000	10pct	1	50pct	50pct	3000	539724	542735	539452	57	543074	339	0	3	103
6.1.1	win	2020-04-15	22:32:20	1	1	1	USRTblock	1	USRT	106	600000	#ff0000	10pct	1	50pct	50pct	6000	543078	549085	542735	57	549522	437	0	3	104
6.1.1	win	2020-04-15	22:32:20	1	1	1	USRTblock	1	USRT	107	600000	#ff0000	10pct	1	50pct	50pct	8000	549527	557534	549085	57	557880	346	0	3	105
6.1.1	win	2020-04-15	22:32:20	1	1	1	USRTblock	1	USRT	108	600000	#ff0000	10pct	1	50pct	50pct	7000	557883	564900	557534	57	565209	309	0	3	106
6.1.1	win	2020-04-15	22:32:20	1	1	1	USRTblock	1	USRT	109	600000	#ff0000	10pct	1	50pct	50pct	5000	565212	570233	564900	57	570497	264	0	3	107
6.1.1	win	2020-04-15	22:32:20	1	1	1	USRTblock	1	USRT	110	600000	#ff0000	10pct	1	50pct	50pct	6000	570501	576515	570233	57	576774	259	0	3	108
6.1.1	win	2020-04-15	22:32:20	1	1	1	USRTblock	1	USRT	111	600000	#ff0000	10pct	1	50pct	50pct	3000	576779	579798	576515	57	580107	309	0	3	109
6.1.1	win	2020-04-15	22:32:20	1	1	1	USRTblock	1	USRT	112	600000	#ff0000	10pct	1	50pct	50pct	2000	580111	582131	579798	57	582415	284	0	3	110
6.1.1	win	2020-04-15	22:32:20	1	1	1	USRTblock	1	USRT	113	600000	#ff0000	10pct	1	50pct	50pct	6000	582420	588431	582131	57	588738	307	0	3	111
6.1.1	win	2020-04-15	22:32:20	1	1	1	USRTblock	1	USRT	114	600000	#ff0000	10pct	1	50pct	50pct	4000	588741	592747	588431	57	593086	339	0	3	112
6.1.1	win	2020-04-15	22:32:20	1	1	1	USRTblock	1	USRT	115	600000	#ff0000	10pct	1	50pct	50pct	4000	593089	597096	592747	57	597427	331	0	3	113
6.1.1	win	2020-04-15	22:32:20	1	1	1	USRTblock	1	USRT	116	600000	#ff0000	10pct	1	50pct	50pct	3000	597431	600446	597096	57	600799	353	0	3	114
6.1.1	win	2020-04-15	22:32:20	1	1	1	USRTblock	1	USRT	117	600000	#ff0000	10pct	1	50pct	50pct	8000	600802	-1	600446	0	600861	0	1	4	115
