build	computer.platform	date	time	subject	group	sessionid	blockcode	blocknum	trialcode	trialnum	testduration	targetcolor	targetsize	fixed	targetx	targety	stiminterval	trialStart	shape.targetcircle.timestamp	lastCircleTimestamp	response	rt_elapsed	rt	EarlyResponse	countEarlyResponses	countResponses
6.1.1	win	2020-04-16	22:24:41	1	1	1	USRTblock	1	USRT	3	600000	#ff0000	10pct	1	50pct	50pct	8000	3344	11366	2545	57	11616	250	0	0	1
6.1.1	win	2020-04-16	22:24:41	1	1	1	USRTblock	1	USRT	4	600000	#ff0000	10pct	1	50pct	50pct	5000	11629	16648	11366	57	16899	251	0	0	2
6.1.1	win	2020-04-16	22:24:41	1	1	1	USRTblock	1	USRT	5	600000	#ff0000	10pct	1	50pct	50pct	7000	16903	23914	16648	57	24223	309	0	0	3
6.1.1	win	2020-04-16	22:24:41	1	1	1	USRTblock	1	USRT	6	600000	#ff0000	10pct	1	50pct	50pct	2000	24228	26247	23914	57	26580	333	0	0	4
6.1.1	win	2020-04-16	22:24:41	1	1	1	USRTblock	1	USRT	7	600000	#ff0000	10pct	1	50pct	50pct	4000	26584	30598	26247	57	30903	305	0	0	5
6.1.1	win	2020-04-16	22:24:41	1	1	1	USRTblock	1	USRT	8	600000	#ff0000	10pct	1	50pct	50pct	8000	30907	38914	30598	57	39222	308	0	0	6
6.1.1	win	2020-04-16	22:24:41	1	1	1	USRTblock	1	USRT	9	600000	#ff0000	10pct	1	50pct	50pct	4000	39227	43246	38914	57	43751	505	0	0	7
6.1.1	win	2020-04-16	22:24:41	1	1	1	USRTblock	1	USRT	10	600000	#ff0000	10pct	1	50pct	50pct	3000	43756	46762	43246	57	47023	261	0	0	8
6.1.1	win	2020-04-16	22:24:41	1	1	1	USRTblock	1	USRT	11	600000	#ff0000	10pct	1	50pct	50pct	6000	47027	53045	46762	57	53311	266	0	0	9
6.1.1	win	2020-04-16	22:24:41	1	1	1	USRTblock	1	USRT	12	600000	#ff0000	10pct	1	50pct	50pct	3000	53315	56328	53045	57	56621	293	0	0	10
6.1.1	win	2020-04-16	22:24:41	1	1	1	USRTblock	1	USRT	13	600000	#ff0000	10pct	1	50pct	50pct	3000	56625	59644	56328	57	59931	287	0	0	11
6.1.1	win	2020-04-16	22:24:41	1	1	1	USRTblock	1	USRT	14	600000	#ff0000	10pct	1	50pct	50pct	5000	59936	64960	59644	57	65224	264	0	0	12
6.1.1	win	2020-04-16	22:24:41	1	1	1	USRTblock	1	USRT	15	600000	#ff0000	10pct	1	50pct	50pct	5000	65228	70243	64960	57	70943	700	0	0	13
6.1.1	win	2020-04-16	22:24:41	1	1	1	USRTblock	1	USRT	16	600000	#ff0000	10pct	1	50pct	50pct	8000	70948	78959	70243	57	79200	241	0	0	14
6.1.1	win	2020-04-16	22:24:41	1	1	1	USRTblock	1	USRT	17	600000	#ff0000	10pct	1	50pct	50pct	3000	79205	82225	78959	57	82494	269	0	0	15
6.1.1	win	2020-04-16	22:24:41	1	1	1	USRTblock	1	USRT	18	600000	#ff0000	10pct	1	50pct	50pct	2000	82498	84508	82225	57	84785	277	0	0	16
6.1.1	win	2020-04-16	22:24:41	1	1	1	USRTblock	1	USRT	19	600000	#ff0000	10pct	1	50pct	50pct	4000	84789	88807	84508	57	89051	244	0	0	17
6.1.1	win	2020-04-16	22:24:41	1	1	1	USRTblock	1	USRT	20	600000	#ff0000	10pct	1	50pct	50pct	4000	89055	93074	88807	57	93344	270	0	0	18
6.1.1	win	2020-04-16	22:24:41	1	1	1	USRTblock	1	USRT	21	600000	#ff0000	10pct	1	50pct	50pct	3000	93348	96357	93074	57	96592	235	0	0	19
6.1.1	win	2020-04-16	22:24:41	1	1	1	USRTblock	1	USRT	22	600000	#ff0000	10pct	1	50pct	50pct	7000	96597	103607	96357	57	103870	263	0	0	20
6.1.1	win	2020-04-16	22:24:41	1	1	1	USRTblock	1	USRT	23	600000	#ff0000	10pct	1	50pct	50pct	3000	103874	106889	103607	57	107162	273	0	0	21
6.1.1	win	2020-04-16	22:24:41	1	1	1	USRTblock	1	USRT	24	600000	#ff0000	10pct	1	50pct	50pct	6000	107167	113189	106889	57	113454	265	0	0	22
6.1.1	win	2020-04-16	22:24:41	1	1	1	USRTblock	1	USRT	25	600000	#ff0000	10pct	1	50pct	50pct	8000	113458	121472	113189	57	121760	288	0	0	23
6.1.1	win	2020-04-16	22:24:41	1	1	1	USRTblock	1	USRT	26	600000	#ff0000	10pct	1	50pct	50pct	6000	121765	127771	121472	57	128052	281	0	0	24
6.1.1	win	2020-04-16	22:24:41	1	1	1	USRTblock	1	USRT	27	600000	#ff0000	10pct	1	50pct	50pct	6000	128057	134070	127771	57	134371	301	0	0	25
6.1.1	win	2020-04-16	22:24:41	1	1	1	USRTblock	1	USRT	28	600000	#ff0000	10pct	1	50pct	50pct	6000	134375	140386	134070	57	140677	291	0	0	26
6.1.1	win	2020-04-16	22:24:41	1	1	1	USRTblock	1	USRT	29	600000	#ff0000	10pct	1	50pct	50pct	5000	140681	145702	140386	57	145975	273	0	0	27
6.1.1	win	2020-04-16	22:24:41	1	1	1	USRTblock	1	USRT	30	600000	#ff0000	10pct	1	50pct	50pct	2000	145979	147985	145702	57	148466	481	0	0	28
6.1.1	win	2020-04-16	22:24:41	1	1	1	USRTblock	1	USRT	31	600000	#ff0000	10pct	1	50pct	50pct	4000	148471	152485	147985	57	152823	338	0	0	29
6.1.1	win	2020-04-16	22:24:41	1	1	1	USRTblock	1	USRT	32	600000	#ff0000	10pct	1	50pct	50pct	7000	152827	159835	152485	57	160100	265	0	0	30
6.1.1	win	2020-04-16	22:24:41	1	1	1	USRTblock	1	USRT	33	600000	#ff0000	10pct	1	50pct	50pct	3000	160105	163117	159835	57	163455	338	0	0	31
6.1.1	win	2020-04-16	22:24:41	1	1	1	USRTblock	1	USRT	34	600000	#ff0000	10pct	1	50pct	50pct	2000	163459	165466	163117	57	165826	360	0	0	32
6.1.1	win	2020-04-16	22:24:41	1	1	1	USRTblock	1	USRT	35	600000	#ff0000	10pct	1	50pct	50pct	2000	165831	167850	165466	57	168225	375	0	0	33
6.1.1	win	2020-04-16	22:24:41	1	1	1	USRTblock	1	USRT	36	600000	#ff0000	10pct	1	50pct	50pct	4000	168230	172249	167850	57	172551	302	0	0	34
6.1.1	win	2020-04-16	22:24:41	1	1	1	USRTblock	1	USRT	37	600000	#ff0000	10pct	1	50pct	50pct	2000	172555	174565	172249	57	175010	445	0	0	35
6.1.1	win	2020-04-16	22:24:41	1	1	1	USRTblock	1	USRT	38	600000	#ff0000	10pct	1	50pct	50pct	7000	175014	182032	174565	57	182442	410	0	0	36
6.1.1	win	2020-04-16	22:24:41	1	1	1	USRTblock	1	USRT	39	600000	#ff0000	10pct	1	50pct	50pct	5000	182447	187465	182032	57	187851	386	0	0	37
6.1.1	win	2020-04-16	22:24:41	1	1	1	USRTblock	1	USRT	40	600000	#ff0000	10pct	1	50pct	50pct	6000	187855	193864	187465	57	194262	398	0	0	38
6.1.1	win	2020-04-16	22:24:41	1	1	1	USRTblock	1	USRT	41	600000	#ff0000	10pct	1	50pct	50pct	3000	194266	197281	193864	57	197734	453	0	0	39
6.1.1	win	2020-04-16	22:24:41	1	1	1	USRTblock	1	USRT	42	600000	#ff0000	10pct	1	50pct	50pct	4000	197738	201747	197281	57	202059	312	0	0	40
6.1.1	win	2020-04-16	22:24:41	1	1	1	USRTblock	1	USRT	43	600000	#ff0000	10pct	1	50pct	50pct	8000	202063	210079	201747	57	210323	244	0	0	41
6.1.1	win	2020-04-16	22:24:41	1	1	1	USRTblock	1	USRT	44	600000	#ff0000	10pct	1	50pct	50pct	6000	210328	216345	210079	57	216588	243	0	0	42
6.1.1	win	2020-04-16	22:24:41	1	1	1	USRTblock	1	USRT	45	600000	#ff0000	10pct	1	50pct	50pct	6000	216593	222611	216345	57	222879	268	0	0	43
6.1.1	win	2020-04-16	22:24:41	1	1	1	USRTblock	1	USRT	46	600000	#ff0000	10pct	1	50pct	50pct	3000	222884	225894	222611	57	226188	294	0	0	44
6.1.1	win	2020-04-16	22:24:41	1	1	1	USRTblock	1	USRT	47	600000	#ff0000	10pct	1	50pct	50pct	7000	226193	233210	225894	57	233461	251	0	0	45
6.1.1	win	2020-04-16	22:24:41	1	1	1	USRTblock	1	USRT	48	600000	#ff0000	10pct	1	50pct	50pct	4000	233465	237476	233210	57	237843	367	0	0	46
6.1.1	win	2020-04-16	22:24:41	1	1	1	USRTblock	1	USRT	49	600000	#ff0000	10pct	1	50pct	50pct	8000	237849	245859	237476	57	246108	249	0	0	47
6.1.1	win	2020-04-16	22:24:41	1	1	1	USRTblock	1	USRT	50	600000	#ff0000	10pct	1	50pct	50pct	8000	246112	254125	245859	57	254422	297	0	0	48
6.1.1	win	2020-04-16	22:24:41	1	1	1	USRTblock	1	USRT	51	600000	#ff0000	10pct	1	50pct	50pct	8000	254426	262441	254125	57	262710	269	0	0	49
6.1.1	win	2020-04-16	22:24:41	1	1	1	USRTblock	1	USRT	52	600000	#ff0000	10pct	1	50pct	50pct	5000	262714	267723	262441	57	267993	270	0	0	50
6.1.1	win	2020-04-16	22:24:41	1	1	1	USRTblock	1	USRT	53	600000	#ff0000	10pct	1	50pct	50pct	2000	267998	270006	267723	57	270322	316	0	0	51
6.1.1	win	2020-04-16	22:24:41	1	1	1	USRTblock	1	USRT	54	600000	#ff0000	10pct	1	50pct	50pct	6000	270327	276339	270006	57	276738	399	0	0	52
6.1.1	win	2020-04-16	22:24:41	1	1	1	USRTblock	1	USRT	55	600000	#ff0000	10pct	1	50pct	50pct	5000	276742	281755	276339	57	282053	298	0	0	53
6.1.1	win	2020-04-16	22:24:41	1	1	1	USRTblock	1	USRT	56	600000	#ff0000	10pct	1	50pct	50pct	6000	282057	288071	281755	57	288324	253	0	0	54
6.1.1	win	2020-04-16	22:24:41	1	1	1	USRTblock	1	USRT	57	600000	#ff0000	10pct	1	50pct	50pct	3000	288329	291338	288071	57	291661	323	0	0	55
6.1.1	win	2020-04-16	22:24:41	1	1	1	USRTblock	1	USRT	58	600000	#ff0000	10pct	1	50pct	50pct	2000	291666	293687	291338	57	293955	268	0	0	56
6.1.1	win	2020-04-16	22:24:41	1	1	1	USRTblock	1	USRT	59	600000	#ff0000	10pct	1	50pct	50pct	4000	293960	297970	293687	57	298266	296	0	0	57
6.1.1	win	2020-04-16	22:24:41	1	1	1	USRTblock	1	USRT	60	600000	#ff0000	10pct	1	50pct	50pct	8000	298270	306286	297970	57	306599	313	0	0	58
6.1.1	win	2020-04-16	22:24:41	1	1	1	USRTblock	1	USRT	61	600000	#ff0000	10pct	1	50pct	50pct	3000	306604	309619	306286	57	309963	344	0	0	59
6.1.1	win	2020-04-16	22:24:41	1	1	1	USRTblock	1	USRT	62	600000	#ff0000	10pct	1	50pct	50pct	4000	309967	313986	309619	57	314294	308	0	0	60
6.1.1	win	2020-04-16	22:24:41	1	1	1	USRTblock	1	USRT	63	600000	#ff0000	10pct	1	50pct	50pct	8000	314299	322318	313986	57	322617	299	0	0	61
6.1.1	win	2020-04-16	22:24:41	1	1	1	USRTblock	1	USRT	64	600000	#ff0000	10pct	1	50pct	50pct	5000	322621	327634	322318	57	327936	302	0	0	62
6.1.1	win	2020-04-16	22:24:41	1	1	1	USRTblock	1	USRT	65	600000	#ff0000	10pct	1	50pct	50pct	2000	327940	329950	327634	57	330278	328	0	0	63
6.1.1	win	2020-04-16	22:24:41	1	1	1	USRTblock	1	USRT	66	600000	#ff0000	10pct	1	50pct	50pct	6000	330282	336300	329950	57	336585	285	0	0	64
6.1.1	win	2020-04-16	22:24:41	1	1	1	USRTblock	1	USRT	67	600000	#ff0000	10pct	1	50pct	50pct	7000	336589	343599	336300	57	343920	321	0	0	65
6.1.1	win	2020-04-16	22:24:41	1	1	1	USRTblock	1	USRT	68	600000	#ff0000	10pct	1	50pct	50pct	8000	343925	351932	343599	57	352234	302	0	0	66
6.1.1	win	2020-04-16	22:24:41	1	1	1	USRTblock	1	USRT	69	600000	#ff0000	10pct	1	50pct	50pct	4000	352238	356248	351932	57	356555	307	0	0	67
6.1.1	win	2020-04-16	22:24:41	1	1	1	USRTblock	1	USRT	70	600000	#ff0000	10pct	1	50pct	50pct	6000	356559	362581	356248	57	362880	299	0	0	68
6.1.1	win	2020-04-16	22:24:41	1	1	1	USRTblock	1	USRT	71	600000	#ff0000	10pct	1	50pct	50pct	6000	362885	368896	362581	57	369244	348	0	0	69
6.1.1	win	2020-04-16	22:24:41	1	1	1	USRTblock	1	USRT	72	600000	#ff0000	10pct	1	50pct	50pct	5000	369248	374263	368896	57	374734	471	0	0	70
6.1.1	win	2020-04-16	22:24:41	1	1	1	USRTblock	1	USRT	73	600000	#ff0000	10pct	1	50pct	50pct	6000	374739	380745	374263	57	381019	274	0	0	71
6.1.1	win	2020-04-16	22:24:41	1	1	1	USRTblock	1	USRT	74	600000	#ff0000	10pct	1	50pct	50pct	8000	381024	389045	380745	57	389380	335	0	0	72
6.1.1	win	2020-04-16	22:24:41	1	1	1	USRTblock	1	USRT	75	600000	#ff0000	10pct	1	50pct	50pct	7000	389385	396394	389045	57	396668	274	0	0	73
6.1.1	win	2020-04-16	22:24:41	1	1	1	USRTblock	1	USRT	76	600000	#ff0000	10pct	1	50pct	50pct	2000	396672	398694	396394	57	399022	328	0	0	74
6.1.1	win	2020-04-16	22:24:41	1	1	1	USRTblock	1	USRT	77	600000	#ff0000	10pct	1	50pct	50pct	7000	399026	406043	398694	57	406327	284	0	0	75
6.1.1	win	2020-04-16	22:24:41	1	1	1	USRTblock	1	USRT	78	600000	#ff0000	10pct	1	50pct	50pct	4000	406332	410342	406043	57	410631	289	0	0	76
6.1.1	win	2020-04-16	22:24:41	1	1	1	USRTblock	1	USRT	79	600000	#ff0000	10pct	1	50pct	50pct	6000	410635	416642	410342	57	416935	293	0	0	77
6.1.1	win	2020-04-16	22:24:41	1	1	1	USRTblock	1	USRT	80	600000	#ff0000	10pct	1	50pct	50pct	5000	416940	421958	416642	57	422302	344	0	0	78
6.1.1	win	2020-04-16	22:24:41	1	1	1	USRTblock	1	USRT	81	600000	#ff0000	10pct	1	50pct	50pct	4000	422306	426328	421958	57	426586	258	0	0	79
6.1.1	win	2020-04-16	22:24:41	1	1	1	USRTblock	1	USRT	82	600000	#ff0000	10pct	1	50pct	50pct	6000	426590	432607	426328	57	432958	351	0	0	80
6.1.1	win	2020-04-16	22:24:41	1	1	1	USRTblock	1	USRT	83	600000	#ff0000	10pct	1	50pct	50pct	8000	432963	440973	432607	57	441281	308	0	0	81
6.1.1	win	2020-04-16	22:24:41	1	1	1	USRTblock	1	USRT	84	600000	#ff0000	10pct	1	50pct	50pct	5000	441286	446305	440973	57	446574	269	0	0	82
6.1.1	win	2020-04-16	22:24:41	1	1	1	USRTblock	1	USRT	85	600000	#ff0000	10pct	1	50pct	50pct	3000	446578	449589	446305	57	449905	316	0	0	83
6.1.1	win	2020-04-16	22:24:41	1	1	1	USRTblock	1	USRT	86	600000	#ff0000	10pct	1	50pct	50pct	2000	449910	451921	449589	57	452194	273	0	0	84
6.1.1	win	2020-04-16	22:24:41	1	1	1	USRTblock	1	USRT	87	600000	#ff0000	10pct	1	50pct	50pct	7000	452199	459204	451921	57	459467	263	0	0	85
6.1.1	win	2020-04-16	22:24:41	1	1	1	USRTblock	1	USRT	88	600000	#ff0000	10pct	1	50pct	50pct	6000	459472	465487	459204	57	465805	318	0	0	86
6.1.1	win	2020-04-16	22:24:41	1	1	1	USRTblock	1	USRT	89	600000	#ff0000	10pct	1	50pct	50pct	8000	465809	473820	465487	57	474071	251	0	0	87
6.1.1	win	2020-04-16	22:24:41	1	1	1	USRTblock	1	USRT	90	600000	#ff0000	10pct	1	50pct	50pct	2000	474076	476085	473820	57	476439	354	0	0	88
6.1.1	win	2020-04-16	22:24:41	1	1	1	USRTblock	1	USRT	91	600000	#ff0000	10pct	1	50pct	50pct	5000	476443	481452	476085	57	481730	278	0	0	89
6.1.1	win	2020-04-16	22:24:41	1	1	1	USRTblock	1	USRT	92	600000	#ff0000	10pct	1	50pct	50pct	8000	481735	489751	481452	57	490008	257	0	0	90
6.1.1	win	2020-04-16	22:24:41	1	1	1	USRTblock	1	USRT	93	600000	#ff0000	10pct	1	50pct	50pct	3000	490012	493034	489751	57	493409	375	0	0	91
6.1.1	win	2020-04-16	22:24:41	1	1	1	USRTblock	1	USRT	94	600000	#ff0000	10pct	1	50pct	50pct	5000	493413	498433	493034	57	498708	275	0	0	92
6.1.1	win	2020-04-16	22:24:41	1	1	1	USRTblock	1	USRT	95	600000	#ff0000	10pct	1	50pct	50pct	5000	498712	503733	498433	57	504079	346	0	0	93
6.1.1	win	2020-04-16	22:24:41	1	1	1	USRTblock	1	USRT	96	600000	#ff0000	10pct	1	50pct	50pct	8000	504084	512100	503733	57	512390	290	0	0	94
6.1.1	win	2020-04-16	22:24:41	1	1	1	USRTblock	1	USRT	97	600000	#ff0000	10pct	1	50pct	50pct	3000	512395	515415	512100	57	515757	342	0	0	95
6.1.1	win	2020-04-16	22:24:41	1	1	1	USRTblock	1	USRT	98	600000	#ff0000	10pct	1	50pct	50pct	8000	515762	523781	515415	57	524146	365	0	0	96
6.1.1	win	2020-04-16	22:24:41	1	1	1	USRTblock	1	USRT	99	600000	#ff0000	10pct	1	50pct	50pct	4000	524151	528164	523781	57	528459	295	0	0	97
6.1.1	win	2020-04-16	22:24:41	1	1	1	USRTblock	1	USRT	100	600000	#ff0000	10pct	1	50pct	50pct	5000	528463	533480	528164	57	533790	310	0	0	98
6.1.1	win	2020-04-16	22:24:41	1	1	1	USRTblock	1	USRT	101	600000	#ff0000	10pct	1	50pct	50pct	8000	533794	541813	533480	57	542157	344	0	0	99
6.1.1	win	2020-04-16	22:24:41	1	1	1	USRTblock	1	USRT	102	600000	#ff0000	10pct	1	50pct	50pct	4000	542162	546179	541813	57	546603	424	0	0	100
6.1.1	win	2020-04-16	22:24:41	1	1	1	USRTblock	1	USRT	103	600000	#ff0000	10pct	1	50pct	50pct	6000	546607	552629	546179	57	552968	339	0	0	101
6.1.1	win	2020-04-16	22:24:41	1	1	1	USRTblock	1	USRT	104	600000	#ff0000	10pct	1	50pct	50pct	7000	552974	559994	552629	57	560312	318	0	0	102
6.1.1	win	2020-04-16	22:24:41	1	1	1	USRTblock	1	USRT	105	600000	#ff0000	10pct	1	50pct	50pct	3000	560316	563327	559994	57	563652	325	0	0	103
6.1.1	win	2020-04-16	22:24:41	1	1	1	USRTblock	1	USRT	106	600000	#ff0000	10pct	1	50pct	50pct	5000	563657	568676	563327	57	568982	306	0	0	104
6.1.1	win	2020-04-16	22:24:41	1	1	1	USRTblock	1	USRT	107	600000	#ff0000	10pct	1	50pct	50pct	6000	568987	574993	568676	57	575336	343	0	0	105
6.1.1	win	2020-04-16	22:24:41	1	1	1	USRTblock	1	USRT	108	600000	#ff0000	10pct	1	50pct	50pct	7000	575340	582359	574993	57	582729	370	0	0	106
6.1.1	win	2020-04-16	22:24:41	1	1	1	USRTblock	1	USRT	109	600000	#ff0000	10pct	1	50pct	50pct	8000	582735	590758	582359	57	591057	299	0	0	107
6.1.1	win	2020-04-16	22:24:41	1	1	1	USRTblock	1	USRT	110	600000	#ff0000	10pct	1	50pct	50pct	8000	591062	599074	590758	57	599385	311	0	0	108
6.1.1	win	2020-04-16	22:24:41	1	1	1	USRTblock	1	USRT	111	600000	#ff0000	10pct	1	50pct	50pct	4000	599389	-1	599074	0	599478	0	1	1	109
