build	computer.platform	date	time	subject	group	sessionid	blockcode	blocknum	trialcode	trialnum	testduration	targetcolor	targetsize	fixed	targetx	targety	stiminterval	trialStart	shape.targetcircle.timestamp	lastCircleTimestamp	response	rt_elapsed	rt	EarlyResponse	countEarlyResponses	countResponses
6.1.1	win	2020-04-17	19:45:43	1	1	1	USRTblock	1	USRT	3	600000	#ff0000	10pct	1	50pct	50pct	6000	5980	11991	5321	57	12226	235	0	0	1
6.1.1	win	2020-04-17	19:45:43	1	1	1	USRTblock	1	USRT	4	600000	#ff0000	10pct	1	50pct	50pct	2000	12244	14257	11991	57	14487	230	0	0	2
6.1.1	win	2020-04-17	19:45:43	1	1	1	USRTblock	1	USRT	5	600000	#ff0000	10pct	1	50pct	50pct	7000	14490	21507	14257	57	21751	244	0	0	3
6.1.1	win	2020-04-17	19:45:43	1	1	1	USRTblock	1	USRT	6	600000	#ff0000	10pct	1	50pct	50pct	7000	21754	28772	21507	57	29026	254	0	0	4
6.1.1	win	2020-04-17	19:45:43	1	1	1	USRTblock	1	USRT	7	600000	#ff0000	10pct	1	50pct	50pct	7000	29030	36040	28772	57	36291	251	0	0	5
6.1.1	win	2020-04-17	19:45:43	1	1	1	USRTblock	1	USRT	8	600000	#ff0000	10pct	1	50pct	50pct	7000	36294	43304	36040	57	43549	245	0	0	6
6.1.1	win	2020-04-17	19:45:43	1	1	1	USRTblock	1	USRT	9	600000	#ff0000	10pct	1	50pct	50pct	7000	43553	50570	43304	57	50881	311	0	0	7
6.1.1	win	2020-04-17	19:45:43	1	1	1	USRTblock	1	USRT	10	600000	#ff0000	10pct	1	50pct	50pct	2000	50885	52903	50570	57	53212	309	0	0	8
6.1.1	win	2020-04-17	19:45:43	1	1	1	USRTblock	1	USRT	11	600000	#ff0000	10pct	1	50pct	50pct	8000	53215	61236	52903	57	61485	249	0	0	9
6.1.1	win	2020-04-17	19:45:43	1	1	1	USRTblock	1	USRT	12	600000	#ff0000	10pct	1	50pct	50pct	7000	61488	68502	61236	57	68784	282	0	0	10
6.1.1	win	2020-04-17	19:45:43	1	1	1	USRTblock	1	USRT	13	600000	#ff0000	10pct	1	50pct	50pct	4000	68787	72801	68502	57	73101	300	0	0	11
6.1.1	win	2020-04-17	19:45:43	1	1	1	USRTblock	1	USRT	14	600000	#ff0000	10pct	1	50pct	50pct	5000	73104	-1	72801	57	75563	0	1	1	12
6.1.1	win	2020-04-17	19:45:43	1	1	1	USRTblock	1	USRT	15	600000	#ff0000	10pct	1	50pct	50pct	6000	75566	81584	-1	57	81846	262	0	1	13
6.1.1	win	2020-04-17	19:45:43	1	1	1	USRTblock	1	USRT	16	600000	#ff0000	10pct	1	50pct	50pct	5000	81850	86866	81584	57	87158	292	0	1	14
6.1.1	win	2020-04-17	19:45:43	1	1	1	USRTblock	1	USRT	17	600000	#ff0000	10pct	1	50pct	50pct	6000	87162	93183	86866	57	93459	276	0	1	15
6.1.1	win	2020-04-17	19:45:43	1	1	1	USRTblock	1	USRT	18	600000	#ff0000	10pct	1	50pct	50pct	4000	93462	97482	93183	57	97773	291	0	1	16
6.1.1	win	2020-04-17	19:45:43	1	1	1	USRTblock	1	USRT	19	600000	#ff0000	10pct	1	50pct	50pct	4000	97777	101781	97482	57	102109	328	0	1	17
6.1.1	win	2020-04-17	19:45:43	1	1	1	USRTblock	1	USRT	20	600000	#ff0000	10pct	1	50pct	50pct	7000	102112	109131	101781	57	109401	270	0	1	18
6.1.1	win	2020-04-17	19:45:43	1	1	1	USRTblock	1	USRT	21	600000	#ff0000	10pct	1	50pct	50pct	3000	109405	112414	109131	57	112653	239	0	1	19
6.1.1	win	2020-04-17	19:45:43	1	1	1	USRTblock	1	USRT	22	600000	#ff0000	10pct	1	50pct	50pct	6000	112657	118663	112414	57	118903	240	0	1	20
6.1.1	win	2020-04-17	19:45:43	1	1	1	USRTblock	1	USRT	23	600000	#ff0000	10pct	1	50pct	50pct	4000	118907	122913	118663	57	123173	260	0	1	21
6.1.1	win	2020-04-17	19:45:43	1	1	1	USRTblock	1	USRT	24	600000	#ff0000	10pct	1	50pct	50pct	4000	123177	127196	122913	57	127495	299	0	1	22
6.1.1	win	2020-04-17	19:45:43	1	1	1	USRTblock	1	USRT	25	600000	#ff0000	10pct	1	50pct	50pct	6000	127499	133512	127196	57	133773	261	0	1	23
6.1.1	win	2020-04-17	19:45:43	1	1	1	USRTblock	1	USRT	26	600000	#ff0000	10pct	1	50pct	50pct	6000	133777	139795	133512	57	140055	260	0	1	24
6.1.1	win	2020-04-17	19:45:43	1	1	1	USRTblock	1	USRT	27	600000	#ff0000	10pct	1	50pct	50pct	8000	140059	148078	139795	57	148313	235	0	1	25
6.1.1	win	2020-04-17	19:45:43	1	1	1	USRTblock	1	USRT	28	600000	#ff0000	10pct	1	50pct	50pct	2000	148317	150326	148078	57	150642	316	0	1	26
6.1.1	win	2020-04-17	19:45:43	1	1	1	USRTblock	1	USRT	29	600000	#ff0000	10pct	1	50pct	50pct	5000	150647	155659	150326	57	155914	255	0	1	27
6.1.1	win	2020-04-17	19:45:43	1	1	1	USRTblock	1	USRT	30	600000	#ff0000	10pct	1	50pct	50pct	8000	155918	163925	155659	57	164419	494	0	1	28
6.1.1	win	2020-04-17	19:45:43	1	1	1	USRTblock	1	USRT	31	600000	#ff0000	10pct	1	50pct	50pct	3000	164422	167441	163925	57	167870	429	0	1	29
6.1.1	win	2020-04-17	19:45:43	1	1	1	USRTblock	1	USRT	32	600000	#ff0000	10pct	1	50pct	50pct	4000	167873	171891	167441	57	172157	266	0	1	30
6.1.1	win	2020-04-17	19:45:43	1	1	1	USRTblock	1	USRT	33	600000	#ff0000	10pct	1	50pct	50pct	6000	172161	178174	171891	57	178504	330	0	1	31
6.1.1	win	2020-04-17	19:45:43	1	1	1	USRTblock	1	USRT	34	600000	#ff0000	10pct	1	50pct	50pct	4000	178547	182557	178174	57	182939	382	0	1	32
6.1.1	win	2020-04-17	19:45:43	1	1	1	USRTblock	1	USRT	35	600000	#ff0000	10pct	1	50pct	50pct	3000	182943	185956	182557	57	186292	336	0	1	33
6.1.1	win	2020-04-17	19:45:43	1	1	1	USRTblock	1	USRT	36	600000	#ff0000	10pct	1	50pct	50pct	4000	186296	190306	185956	57	190565	259	0	1	34
6.1.1	win	2020-04-17	19:45:43	1	1	1	USRTblock	1	USRT	37	600000	#ff0000	10pct	1	50pct	50pct	8000	190568	198589	190306	57	198895	306	0	1	35
6.1.1	win	2020-04-17	19:45:43	1	1	1	USRTblock	1	USRT	38	600000	#ff0000	10pct	1	50pct	50pct	2000	198899	200905	198589	57	201535	630	0	1	36
6.1.1	win	2020-04-17	19:45:43	1	1	1	USRTblock	1	USRT	39	600000	#ff0000	10pct	1	50pct	50pct	6000	201539	207555	200905	57	207813	258	0	1	37
6.1.1	win	2020-04-17	19:45:43	1	1	1	USRTblock	1	USRT	40	600000	#ff0000	10pct	1	50pct	50pct	7000	207818	214837	207555	57	215095	258	0	1	38
6.1.1	win	2020-04-17	19:45:43	1	1	1	USRTblock	1	USRT	41	600000	#ff0000	10pct	1	50pct	50pct	7000	215098	222103	214837	57	222318	215	0	1	39
6.1.1	win	2020-04-17	19:45:43	1	1	1	USRTblock	1	USRT	42	600000	#ff0000	10pct	1	50pct	50pct	3000	222321	225336	222103	57	225647	311	0	1	40
6.1.1	win	2020-04-17	19:45:43	1	1	1	USRTblock	1	USRT	43	600000	#ff0000	10pct	1	50pct	50pct	2000	225650	227669	225336	57	227934	265	0	1	41
6.1.1	win	2020-04-17	19:45:43	1	1	1	USRTblock	1	USRT	44	600000	#ff0000	10pct	1	50pct	50pct	7000	227938	234952	227669	57	235204	252	0	1	42
6.1.1	win	2020-04-17	19:45:43	1	1	1	USRTblock	1	USRT	45	600000	#ff0000	10pct	1	50pct	50pct	2000	235207	237218	234952	57	237612	394	0	1	43
6.1.1	win	2020-04-17	19:45:43	1	1	1	USRTblock	1	USRT	46	600000	#ff0000	10pct	1	50pct	50pct	5000	237615	242634	237218	57	242905	271	0	1	44
6.1.1	win	2020-04-17	19:45:43	1	1	1	USRTblock	1	USRT	47	600000	#ff0000	10pct	1	50pct	50pct	5000	242908	247917	242634	57	248164	247	0	1	45
6.1.1	win	2020-04-17	19:45:43	1	1	1	USRTblock	1	USRT	48	600000	#ff0000	10pct	1	50pct	50pct	5000	248167	253183	247917	57	253430	247	0	1	46
6.1.1	win	2020-04-17	19:45:43	1	1	1	USRTblock	1	USRT	49	600000	#ff0000	10pct	1	50pct	50pct	8000	253434	261449	253183	57	261711	262	0	1	47
6.1.1	win	2020-04-17	19:45:43	1	1	1	USRTblock	1	USRT	50	600000	#ff0000	10pct	1	50pct	50pct	6000	261715	267732	261449	57	268026	294	0	1	48
6.1.1	win	2020-04-17	19:45:43	1	1	1	USRTblock	1	USRT	51	600000	#ff0000	10pct	1	50pct	50pct	8000	268029	276048	267732	57	276331	283	0	1	49
6.1.1	win	2020-04-17	19:45:43	1	1	1	USRTblock	1	USRT	52	600000	#ff0000	10pct	1	50pct	50pct	2000	276334	278347	276048	57	278708	361	0	1	50
6.1.1	win	2020-04-17	19:45:43	1	1	1	USRTblock	1	USRT	53	600000	#ff0000	10pct	1	50pct	50pct	5000	278712	283730	278347	57	284265	535	0	1	51
6.1.1	win	2020-04-17	19:45:43	1	1	1	USRTblock	1	USRT	54	600000	#ff0000	10pct	1	50pct	50pct	7000	284268	291280	283730	57	291553	273	0	1	52
6.1.1	win	2020-04-17	19:45:43	1	1	1	USRTblock	1	USRT	55	600000	#ff0000	10pct	1	50pct	50pct	6000	291556	297562	291280	57	297841	279	0	1	53
6.1.1	win	2020-04-17	19:45:43	1	1	1	USRTblock	1	USRT	56	600000	#ff0000	10pct	1	50pct	50pct	6000	297845	303862	297562	57	304148	286	0	1	54
6.1.1	win	2020-04-17	19:45:43	1	1	1	USRTblock	1	USRT	57	600000	#ff0000	10pct	1	50pct	50pct	7000	304152	311161	303862	57	311453	292	0	1	55
6.1.1	win	2020-04-17	19:45:43	1	1	1	USRTblock	1	USRT	58	600000	#ff0000	10pct	1	50pct	50pct	7000	311456	318477	311161	57	318990	513	0	1	56
6.1.1	win	2020-04-17	19:45:43	1	1	1	USRTblock	1	USRT	59	600000	#ff0000	10pct	1	50pct	50pct	2000	318994	321009	318477	57	321481	472	0	1	57
6.1.1	win	2020-04-17	19:45:43	1	1	1	USRTblock	1	USRT	60	600000	#ff0000	10pct	1	50pct	50pct	4000	321484	325492	321009	57	325834	342	0	1	58
6.1.1	win	2020-04-17	19:45:43	1	1	1	USRTblock	1	USRT	61	600000	#ff0000	10pct	1	50pct	50pct	6000	325838	331859	325492	57	332131	272	0	1	59
6.1.1	win	2020-04-17	19:45:43	1	1	1	USRTblock	1	USRT	62	600000	#ff0000	10pct	1	50pct	50pct	8000	332135	340141	331859	57	340409	268	0	1	60
6.1.1	win	2020-04-17	19:45:43	1	1	1	USRTblock	1	USRT	63	600000	#ff0000	10pct	1	50pct	50pct	2000	340412	342425	340141	57	342817	392	0	1	61
6.1.1	win	2020-04-17	19:45:43	1	1	1	USRTblock	1	USRT	64	600000	#ff0000	10pct	1	50pct	50pct	5000	342821	347841	342425	57	348193	352	0	1	62
6.1.1	win	2020-04-17	19:45:43	1	1	1	USRTblock	1	USRT	65	600000	#ff0000	10pct	1	50pct	50pct	7000	348196	355207	347841	57	355523	316	0	1	63
6.1.1	win	2020-04-17	19:45:43	1	1	1	USRTblock	1	USRT	66	600000	#ff0000	10pct	1	50pct	50pct	2000	355527	357540	355207	57	358461	921	0	1	64
6.1.1	win	2020-04-17	19:45:43	1	1	1	USRTblock	1	USRT	67	600000	#ff0000	10pct	1	50pct	50pct	7000	358464	365472	357540	57	365731	259	0	1	65
6.1.1	win	2020-04-17	19:45:43	1	1	1	USRTblock	1	USRT	68	600000	#ff0000	10pct	1	50pct	50pct	6000	365736	371755	365472	57	372030	275	0	1	66
6.1.1	win	2020-04-17	19:45:43	1	1	1	USRTblock	1	USRT	69	600000	#ff0000	10pct	1	50pct	50pct	3000	372034	375054	371755	57	375404	350	0	1	67
6.1.1	win	2020-04-17	19:45:43	1	1	1	USRTblock	1	USRT	70	600000	#ff0000	10pct	1	50pct	50pct	2000	375408	377421	375054	57	377748	327	0	1	68
6.1.1	win	2020-04-17	19:45:43	1	1	1	USRTblock	1	USRT	71	600000	#ff0000	10pct	1	50pct	50pct	7000	377752	384770	377421	57	385024	254	0	1	69
6.1.1	win	2020-04-17	19:45:43	1	1	1	USRTblock	1	USRT	72	600000	#ff0000	10pct	1	50pct	50pct	8000	385028	393036	384770	57	393276	240	0	1	70
6.1.1	win	2020-04-17	19:45:43	1	1	1	USRTblock	1	USRT	73	600000	#ff0000	10pct	1	50pct	50pct	6000	393280	399285	393036	57	399591	306	0	1	71
6.1.1	win	2020-04-17	19:45:43	1	1	1	USRTblock	1	USRT	74	600000	#ff0000	10pct	1	50pct	50pct	3000	399594	402601	399285	57	402961	360	0	1	72
6.1.1	win	2020-04-17	19:45:43	1	1	1	USRTblock	1	USRT	75	600000	#ff0000	10pct	1	50pct	50pct	7000	402964	409984	402601	57	410357	373	0	1	73
6.1.1	win	2020-04-17	19:45:43	1	1	1	USRTblock	1	USRT	76	600000	#ff0000	10pct	1	50pct	50pct	5000	410361	415367	409984	57	415658	291	0	1	74
6.1.1	win	2020-04-17	19:45:43	1	1	1	USRTblock	1	USRT	77	600000	#ff0000	10pct	1	50pct	50pct	4000	415661	419666	415367	57	419960	294	0	1	75
6.1.1	win	2020-04-17	19:45:43	1	1	1	USRTblock	1	USRT	78	600000	#ff0000	10pct	1	50pct	50pct	2000	419964	421982	419666	57	422482	500	0	1	76
6.1.1	win	2020-04-17	19:45:43	1	1	1	USRTblock	1	USRT	79	600000	#ff0000	10pct	1	50pct	50pct	5000	422485	427499	421982	57	427796	297	0	1	77
6.1.1	win	2020-04-17	19:45:43	1	1	1	USRTblock	1	USRT	80	600000	#ff0000	10pct	1	50pct	50pct	7000	427800	434815	427499	57	435119	304	0	1	78
6.1.1	win	2020-04-17	19:45:43	1	1	1	USRTblock	1	USRT	81	600000	#ff0000	10pct	1	50pct	50pct	4000	435123	439131	434815	57	439426	295	0	1	79
6.1.1	win	2020-04-17	19:45:43	1	1	1	USRTblock	1	USRT	82	600000	#ff0000	10pct	1	50pct	50pct	6000	439429	445448	439131	57	445730	282	0	1	80
6.1.1	win	2020-04-17	19:45:43	1	1	1	USRTblock	1	USRT	83	600000	#ff0000	10pct	1	50pct	50pct	4000	445733	449746	445448	57	450013	267	0	1	81
6.1.1	win	2020-04-17	19:45:43	1	1	1	USRTblock	1	USRT	84	600000	#ff0000	10pct	1	50pct	50pct	3000	450016	453029	449746	57	453338	309	0	1	82
6.1.1	win	2020-04-17	19:45:43	1	1	1	USRTblock	1	USRT	85	600000	#ff0000	10pct	1	50pct	50pct	4000	453343	457363	453029	57	457645	282	0	1	83
6.1.1	win	2020-04-17	19:45:43	1	1	1	USRTblock	1	USRT	86	600000	#ff0000	10pct	1	50pct	50pct	3000	457648	460663	457363	57	460903	240	0	1	84
6.1.1	win	2020-04-17	19:45:43	1	1	1	USRTblock	1	USRT	87	600000	#ff0000	10pct	1	50pct	50pct	3000	460906	463912	460663	57	464186	274	0	1	85
6.1.1	win	2020-04-17	19:45:43	1	1	1	USRTblock	1	USRT	88	600000	#ff0000	10pct	1	50pct	50pct	4000	464190	468195	463912	57	468500	305	0	1	86
6.1.1	win	2020-04-17	19:45:43	1	1	1	USRTblock	1	USRT	89	600000	#ff0000	10pct	1	50pct	50pct	5000	468504	473511	468195	57	473765	254	0	1	87
6.1.1	win	2020-04-17	19:45:43	1	1	1	USRTblock	1	USRT	90	600000	#ff0000	10pct	1	50pct	50pct	6000	473769	479777	473511	57	480044	267	0	1	88
6.1.1	win	2020-04-17	19:45:43	1	1	1	USRTblock	1	USRT	91	600000	#ff0000	10pct	1	50pct	50pct	2000	480047	482060	479777	57	482347	287	0	1	89
6.1.1	win	2020-04-17	19:45:43	1	1	1	USRTblock	1	USRT	92	600000	#ff0000	10pct	1	50pct	50pct	7000	482351	489360	482060	57	489611	251	0	1	90
6.1.1	win	2020-04-17	19:45:43	1	1	1	USRTblock	1	USRT	93	600000	#ff0000	10pct	1	50pct	50pct	7000	489614	496625	489360	57	496879	254	0	1	91
6.1.1	win	2020-04-17	19:45:43	1	1	1	USRTblock	1	USRT	94	600000	#ff0000	10pct	1	50pct	50pct	5000	496883	501891	496625	57	502192	301	0	1	92
6.1.1	win	2020-04-17	19:45:43	1	1	1	USRTblock	1	USRT	95	600000	#ff0000	10pct	1	50pct	50pct	5000	502195	507207	501891	57	507472	265	0	1	93
6.1.1	win	2020-04-17	19:45:43	1	1	1	USRTblock	1	USRT	96	600000	#ff0000	10pct	1	50pct	50pct	8000	507475	515490	507207	57	515789	299	0	1	94
6.1.1	win	2020-04-17	19:45:43	1	1	1	USRTblock	1	USRT	97	600000	#ff0000	10pct	1	50pct	50pct	8000	515793	523806	515490	57	524154	348	0	1	95
6.1.1	win	2020-04-17	19:45:43	1	1	1	USRTblock	1	USRT	98	600000	#ff0000	10pct	1	50pct	50pct	2000	524158	526172	523806	57	526623	451	0	1	96
6.1.1	win	2020-04-17	19:45:43	1	1	1	USRTblock	1	USRT	99	600000	#ff0000	10pct	1	50pct	50pct	3000	526627	529639	526172	57	530009	370	0	1	97
6.1.1	win	2020-04-17	19:45:43	1	1	1	USRTblock	1	USRT	100	600000	#ff0000	10pct	1	50pct	50pct	6000	530013	536022	529639	57	536334	312	0	1	98
6.1.1	win	2020-04-17	19:45:43	1	1	1	USRTblock	1	USRT	101	600000	#ff0000	10pct	1	50pct	50pct	5000	536337	541354	536022	57	541660	306	0	1	99
6.1.1	win	2020-04-17	19:45:43	1	1	1	USRTblock	1	USRT	102	600000	#ff0000	10pct	1	50pct	50pct	7000	541664	548671	541354	57	548979	308	0	1	100
6.1.1	win	2020-04-17	19:45:43	1	1	1	USRTblock	1	USRT	103	600000	#ff0000	10pct	1	50pct	50pct	8000	548983	557003	548671	57	557360	357	0	1	101
6.1.1	win	2020-04-17	19:45:43	1	1	1	USRTblock	1	USRT	104	600000	#ff0000	10pct	1	50pct	50pct	5000	557363	562369	557003	57	562704	335	0	1	102
6.1.1	win	2020-04-17	19:45:43	1	1	1	USRTblock	1	USRT	105	600000	#ff0000	10pct	1	50pct	50pct	4000	562708	566718	562369	57	567199	481	0	1	103
6.1.1	win	2020-04-17	19:45:43	1	1	1	USRTblock	1	USRT	106	600000	#ff0000	10pct	1	50pct	50pct	3000	567203	570218	566718	57	570675	457	0	1	104
6.1.1	win	2020-04-17	19:45:43	1	1	1	USRTblock	1	USRT	107	600000	#ff0000	10pct	1	50pct	50pct	5000	570678	575684	570218	57	576401	717	0	1	105
6.1.1	win	2020-04-17	19:45:43	1	1	1	USRTblock	1	USRT	108	600000	#ff0000	10pct	1	50pct	50pct	8000	576404	584417	575684	57	584708	291	0	1	106
6.1.1	win	2020-04-17	19:45:43	1	1	1	USRTblock	1	USRT	109	600000	#ff0000	10pct	1	50pct	50pct	4000	584712	588733	584417	57	589045	312	0	1	107
6.1.1	win	2020-04-17	19:45:43	1	1	1	USRTblock	1	USRT	110	600000	#ff0000	10pct	1	50pct	50pct	4000	589049	593066	588733	57	593365	299	0	1	108
6.1.1	win	2020-04-17	19:45:43	1	1	1	USRTblock	1	USRT	111	600000	#ff0000	10pct	1	50pct	50pct	8000	593368	601382	593066	57	601764	382	0	1	109
6.1.1	win	2020-04-17	19:45:43	1	1	1	USRTblock	1	USRT	112	600000	#ff0000	10pct	1	50pct	50pct	3000	601769	-1	601382	0	601843	0	1	2	110
