build	computer.platform	date	time	subject	group	sessionid	blockcode	blocknum	trialcode	trialnum	testduration	targetcolor	targetsize	fixed	targetx	targety	stiminterval	trialStart	shape.targetcircle.timestamp	lastCircleTimestamp	response	rt_elapsed	rt	EarlyResponse	countEarlyResponses	countResponses
6.1.1	win	2020-04-17	13:01:30	1	1	1	USRTblock	1	USRT	3	600000	#ff0000	10pct	1	50pct	50pct	4000	2858	6877	2106	57	7152	275	0	0	1
6.1.1	win	2020-04-17	13:01:30	1	1	1	USRTblock	1	USRT	4	600000	#ff0000	10pct	1	50pct	50pct	3000	7179	10193	6877	57	10478	285	0	0	2
6.1.1	win	2020-04-17	13:01:30	1	1	1	USRTblock	1	USRT	5	600000	#ff0000	10pct	1	50pct	50pct	6000	10482	16492	10193	57	16718	226	0	0	3
6.1.1	win	2020-04-17	13:01:30	1	1	1	USRTblock	1	USRT	6	600000	#ff0000	10pct	1	50pct	50pct	4000	16722	20742	16492	57	20990	248	0	0	4
6.1.1	win	2020-04-17	13:01:30	1	1	1	USRTblock	1	USRT	7	600000	#ff0000	10pct	1	50pct	50pct	7000	20993	28008	20742	57	28258	250	0	0	5
6.1.1	win	2020-04-17	13:01:30	1	1	1	USRTblock	1	USRT	8	600000	#ff0000	10pct	1	50pct	50pct	4000	28261	32273	28008	57	32541	268	0	0	6
6.1.1	win	2020-04-17	13:01:30	1	1	1	USRTblock	1	USRT	9	600000	#ff0000	10pct	1	50pct	50pct	5000	32544	37556	32273	57	37799	243	0	0	7
6.1.1	win	2020-04-17	13:01:30	1	1	1	USRTblock	1	USRT	10	600000	#ff0000	10pct	1	50pct	50pct	6000	37803	43823	37556	57	44093	270	0	0	8
6.1.1	win	2020-04-17	13:01:30	1	1	1	USRTblock	1	USRT	11	600000	#ff0000	10pct	1	50pct	50pct	3000	44097	47105	43823	57	47417	312	0	0	9
6.1.1	win	2020-04-17	13:01:30	1	1	1	USRTblock	1	USRT	12	600000	#ff0000	10pct	1	50pct	50pct	6000	47420	53438	47105	57	53718	280	0	0	10
6.1.1	win	2020-04-17	13:01:30	1	1	1	USRTblock	1	USRT	13	600000	#ff0000	10pct	1	50pct	50pct	3000	53721	56737	53438	57	57082	345	0	0	11
6.1.1	win	2020-04-17	13:01:30	1	1	1	USRTblock	1	USRT	14	600000	#ff0000	10pct	1	50pct	50pct	7000	57086	64104	56737	57	64389	285	0	0	12
6.1.1	win	2020-04-17	13:01:30	1	1	1	USRTblock	1	USRT	15	600000	#ff0000	10pct	1	50pct	50pct	2000	64393	66403	64104	57	66716	313	0	0	13
6.1.1	win	2020-04-17	13:01:30	1	1	1	USRTblock	1	USRT	16	600000	#ff0000	10pct	1	50pct	50pct	2000	66719	68736	66403	57	69072	336	0	0	14
6.1.1	win	2020-04-17	13:01:30	1	1	1	USRTblock	1	USRT	17	600000	#ff0000	10pct	1	50pct	50pct	8000	69076	77086	68736	57	77361	275	0	0	15
6.1.1	win	2020-04-17	13:01:30	1	1	1	USRTblock	1	USRT	18	600000	#ff0000	10pct	1	50pct	50pct	8000	77364	85385	77086	57	85646	261	0	0	16
6.1.1	win	2020-04-17	13:01:30	1	1	1	USRTblock	1	USRT	19	600000	#ff0000	10pct	1	50pct	50pct	4000	85649	89667	85385	57	89955	288	0	0	17
6.1.1	win	2020-04-17	13:01:30	1	1	1	USRTblock	1	USRT	20	600000	#ff0000	10pct	1	50pct	50pct	8000	89959	97967	89667	57	98357	390	0	0	18
6.1.1	win	2020-04-17	13:01:30	1	1	1	USRTblock	1	USRT	21	600000	#ff0000	10pct	1	50pct	50pct	2000	98360	100366	97967	57	100781	415	0	0	19
6.1.1	win	2020-04-17	13:01:30	1	1	1	USRTblock	1	USRT	22	600000	#ff0000	10pct	1	50pct	50pct	3000	100785	103799	100366	57	104345	546	0	0	20
6.1.1	win	2020-04-17	13:01:30	1	1	1	USRTblock	1	USRT	23	600000	#ff0000	10pct	1	50pct	50pct	4000	104349	108365	103799	57	108685	320	0	0	21
6.1.1	win	2020-04-17	13:01:30	1	1	1	USRTblock	1	USRT	24	600000	#ff0000	10pct	1	50pct	50pct	5000	108689	113698	108365	57	113982	284	0	0	22
6.1.1	win	2020-04-17	13:01:30	1	1	1	USRTblock	1	USRT	25	600000	#ff0000	10pct	1	50pct	50pct	3000	113986	116998	113698	57	117314	316	0	0	23
6.1.1	win	2020-04-17	13:01:30	1	1	1	USRTblock	1	USRT	26	600000	#ff0000	10pct	1	50pct	50pct	7000	117317	124332	116998	57	124581	249	0	0	24
6.1.1	win	2020-04-17	13:01:30	1	1	1	USRTblock	1	USRT	27	600000	#ff0000	10pct	1	50pct	50pct	7000	124585	131597	124332	57	131896	299	0	0	25
6.1.1	win	2020-04-17	13:01:30	1	1	1	USRTblock	1	USRT	28	600000	#ff0000	10pct	1	50pct	50pct	5000	131900	136913	131597	57	137245	332	0	0	26
6.1.1	win	2020-04-17	13:01:30	1	1	1	USRTblock	1	USRT	29	600000	#ff0000	10pct	1	50pct	50pct	5000	137248	142262	136913	57	142552	290	0	0	27
6.1.1	win	2020-04-17	13:01:30	1	1	1	USRTblock	1	USRT	30	600000	#ff0000	10pct	1	50pct	50pct	6000	142555	148561	142262	57	148885	324	0	0	28
6.1.1	win	2020-04-17	13:01:30	1	1	1	USRTblock	1	USRT	31	600000	#ff0000	10pct	1	50pct	50pct	3000	148889	151895	148561	57	152178	283	0	0	29
6.1.1	win	2020-04-17	13:01:30	1	1	1	USRTblock	1	USRT	32	600000	#ff0000	10pct	1	50pct	50pct	2000	152182	154194	151895	57	154566	372	0	0	30
6.1.1	win	2020-04-17	13:01:30	1	1	1	USRTblock	1	USRT	33	600000	#ff0000	10pct	1	50pct	50pct	5000	154570	159577	154194	57	159868	291	0	0	31
6.1.1	win	2020-04-17	13:01:30	1	1	1	USRTblock	1	USRT	34	600000	#ff0000	10pct	1	50pct	50pct	7000	159871	166877	159577	57	167152	275	0	0	32
6.1.1	win	2020-04-17	13:01:30	1	1	1	USRTblock	1	USRT	35	600000	#ff0000	10pct	1	50pct	50pct	6000	167155	173176	166877	57	173460	284	0	0	33
6.1.1	win	2020-04-17	13:01:30	1	1	1	USRTblock	1	USRT	36	600000	#ff0000	10pct	1	50pct	50pct	8000	173464	181475	173176	57	181768	293	0	0	34
6.1.1	win	2020-04-17	13:01:30	1	1	1	USRTblock	1	USRT	37	600000	#ff0000	10pct	1	50pct	50pct	7000	181772	188791	181475	57	189057	266	0	0	35
6.1.1	win	2020-04-17	13:01:30	1	1	1	USRTblock	1	USRT	38	600000	#ff0000	10pct	1	50pct	50pct	6000	189060	195073	188791	57	195343	270	0	0	36
6.1.1	win	2020-04-17	13:01:30	1	1	1	USRTblock	1	USRT	39	600000	#ff0000	10pct	1	50pct	50pct	5000	195347	200357	195073	57	200628	271	0	0	37
6.1.1	win	2020-04-17	13:01:30	1	1	1	USRTblock	1	USRT	40	600000	#ff0000	10pct	1	50pct	50pct	6000	200633	206656	200357	57	206908	252	0	0	38
6.1.1	win	2020-04-17	13:01:30	1	1	1	USRTblock	1	USRT	41	600000	#ff0000	10pct	1	50pct	50pct	3000	206912	209922	206656	57	210241	319	0	0	39
6.1.1	win	2020-04-17	13:01:30	1	1	1	USRTblock	1	USRT	42	600000	#ff0000	10pct	1	50pct	50pct	8000	210245	218255	209922	57	218494	239	0	0	40
6.1.1	win	2020-04-17	13:01:30	1	1	1	USRTblock	1	USRT	43	600000	#ff0000	10pct	1	50pct	50pct	3000	218497	221504	218255	57	221818	314	0	0	41
6.1.1	win	2020-04-17	13:01:30	1	1	1	USRTblock	1	USRT	44	600000	#ff0000	10pct	1	50pct	50pct	8000	221822	229837	221504	57	230070	233	0	0	42
6.1.1	win	2020-04-17	13:01:30	1	1	1	USRTblock	1	USRT	45	600000	#ff0000	10pct	1	50pct	50pct	7000	230074	237086	229837	57	237433	347	0	0	43
6.1.1	win	2020-04-17	13:01:30	1	1	1	USRTblock	1	USRT	46	600000	#ff0000	10pct	1	50pct	50pct	5000	237436	242452	237086	57	242737	285	0	0	44
6.1.1	win	2020-04-17	13:01:30	1	1	1	USRTblock	1	USRT	47	600000	#ff0000	10pct	1	50pct	50pct	5000	242741	247752	242452	57	248051	299	0	0	45
6.1.1	win	2020-04-17	13:01:30	1	1	1	USRTblock	1	USRT	48	600000	#ff0000	10pct	1	50pct	50pct	3000	248056	251068	247752	57	251346	278	0	0	46
6.1.1	win	2020-04-17	13:01:30	1	1	1	USRTblock	1	USRT	49	600000	#ff0000	10pct	1	50pct	50pct	8000	251349	259367	251068	57	259679	312	0	0	47
6.1.1	win	2020-04-17	13:01:30	1	1	1	USRTblock	1	USRT	50	600000	#ff0000	10pct	1	50pct	50pct	6000	259682	265700	259367	57	266123	423	0	0	48
6.1.1	win	2020-04-17	13:01:30	1	1	1	USRTblock	1	USRT	51	600000	#ff0000	10pct	1	50pct	50pct	7000	266126	273133	265700	57	273438	305	0	0	49
6.1.1	win	2020-04-17	13:01:30	1	1	1	USRTblock	1	USRT	52	600000	#ff0000	10pct	1	50pct	50pct	8000	273441	281449	273133	57	281776	327	0	0	50
6.1.1	win	2020-04-17	13:01:30	1	1	1	USRTblock	1	USRT	53	600000	#ff0000	10pct	1	50pct	50pct	6000	281780	287798	281449	57	288060	262	0	0	51
6.1.1	win	2020-04-17	13:01:30	1	1	1	USRTblock	1	USRT	54	600000	#ff0000	10pct	1	50pct	50pct	5000	288063	293081	287798	57	293369	288	0	0	52
6.1.1	win	2020-04-17	13:01:30	1	1	1	USRTblock	1	USRT	55	600000	#ff0000	10pct	1	50pct	50pct	2000	293373	295380	293081	57	295678	298	0	0	53
6.1.1	win	2020-04-17	13:01:30	1	1	1	USRTblock	1	USRT	56	600000	#ff0000	10pct	1	50pct	50pct	7000	295682	302697	295380	57	303000	303	0	0	54
6.1.1	win	2020-04-17	13:01:30	1	1	1	USRTblock	1	USRT	57	600000	#ff0000	10pct	1	50pct	50pct	7000	303004	310013	302697	57	310342	329	0	0	55
6.1.1	win	2020-04-17	13:01:30	1	1	1	USRTblock	1	USRT	58	600000	#ff0000	10pct	1	50pct	50pct	3000	310345	313361	310013	57	313817	456	0	0	56
6.1.1	win	2020-04-17	13:01:30	1	1	1	USRTblock	1	USRT	59	600000	#ff0000	10pct	1	50pct	50pct	3000	313820	316828	313361	57	317355	527	0	0	57
6.1.1	win	2020-04-17	13:01:30	1	1	1	USRTblock	1	USRT	60	600000	#ff0000	10pct	1	50pct	50pct	4000	317358	321377	316828	57	321691	314	0	0	58
6.1.1	win	2020-04-17	13:01:30	1	1	1	USRTblock	1	USRT	61	600000	#ff0000	10pct	1	50pct	50pct	8000	321695	329710	321377	57	329973	263	0	0	59
6.1.1	win	2020-04-17	13:01:30	1	1	1	USRTblock	1	USRT	62	600000	#ff0000	10pct	1	50pct	50pct	8000	329977	337993	329710	57	338285	292	0	0	60
6.1.1	win	2020-04-17	13:01:30	1	1	1	USRTblock	1	USRT	63	600000	#ff0000	10pct	1	50pct	50pct	5000	338288	343308	337993	57	343587	279	0	0	61
6.1.1	win	2020-04-17	13:01:30	1	1	1	USRTblock	1	USRT	64	600000	#ff0000	10pct	1	50pct	50pct	6000	343590	349609	343308	57	349869	260	0	0	62
6.1.1	win	2020-04-17	13:01:30	1	1	1	USRTblock	1	USRT	65	600000	#ff0000	10pct	1	50pct	50pct	3000	349872	352891	349609	57	353135	244	0	0	63
6.1.1	win	2020-04-17	13:01:30	1	1	1	USRTblock	1	USRT	66	600000	#ff0000	10pct	1	50pct	50pct	7000	353138	360157	352891	57	360432	275	0	0	64
6.1.1	win	2020-04-17	13:01:30	1	1	1	USRTblock	1	USRT	67	600000	#ff0000	10pct	1	50pct	50pct	5000	360435	365440	360157	57	365838	398	0	0	65
6.1.1	win	2020-04-17	13:01:30	1	1	1	USRTblock	1	USRT	68	600000	#ff0000	10pct	1	50pct	50pct	4000	365842	369856	365440	57	370221	365	0	0	66
6.1.1	win	2020-04-17	13:01:30	1	1	1	USRTblock	1	USRT	69	600000	#ff0000	10pct	1	50pct	50pct	4000	370225	374239	369856	57	374552	313	0	0	67
6.1.1	win	2020-04-17	13:01:30	1	1	1	USRTblock	1	USRT	70	600000	#ff0000	10pct	1	50pct	50pct	5000	374555	379572	374239	57	379821	249	0	0	68
6.1.1	win	2020-04-17	13:01:30	1	1	1	USRTblock	1	USRT	71	600000	#ff0000	10pct	1	50pct	50pct	4000	379825	383838	379572	57	384194	356	0	0	69
6.1.1	win	2020-04-17	13:01:30	1	1	1	USRTblock	1	USRT	72	600000	#ff0000	10pct	1	50pct	50pct	4000	384198	388204	383838	57	388520	316	0	0	70
6.1.1	win	2020-04-17	13:01:30	1	1	1	USRTblock	1	USRT	73	600000	#ff0000	10pct	1	50pct	50pct	2000	388524	390537	388204	57	390877	340	0	0	71
6.1.1	win	2020-04-17	13:01:30	1	1	1	USRTblock	1	USRT	74	600000	#ff0000	10pct	1	50pct	50pct	7000	390881	397904	390537	57	398219	315	0	0	72
6.1.1	win	2020-04-17	13:01:30	1	1	1	USRTblock	1	USRT	75	600000	#ff0000	10pct	1	50pct	50pct	3000	398222	401236	397904	57	401599	363	0	0	73
6.1.1	win	2020-04-17	13:01:30	1	1	1	USRTblock	1	USRT	76	600000	#ff0000	10pct	1	50pct	50pct	8000	401603	409620	401236	57	409975	355	0	0	74
6.1.1	win	2020-04-17	13:01:30	1	1	1	USRTblock	1	USRT	77	600000	#ff0000	10pct	1	50pct	50pct	2000	409979	411985	409620	57	412316	331	0	0	75
6.1.1	win	2020-04-17	13:01:30	1	1	1	USRTblock	1	USRT	78	600000	#ff0000	10pct	1	50pct	50pct	8000	412319	420334	411985	57	420649	315	0	0	76
6.1.1	win	2020-04-17	13:01:30	1	1	1	USRTblock	1	USRT	79	600000	#ff0000	10pct	1	50pct	50pct	4000	420652	424667	420334	57	425014	347	0	0	77
6.1.1	win	2020-04-17	13:01:30	1	1	1	USRTblock	1	USRT	80	600000	#ff0000	10pct	1	50pct	50pct	6000	425017	-1	424667	57	429182	0	1	1	78
6.1.1	win	2020-04-17	13:01:30	1	1	1	USRTblock	1	USRT	81	600000	#ff0000	10pct	1	50pct	50pct	7000	429187	436200	-1	57	436477	277	0	1	79
6.1.1	win	2020-04-17	13:01:30	1	1	1	USRTblock	1	USRT	82	600000	#ff0000	10pct	1	50pct	50pct	2000	436482	438499	436200	57	438857	358	0	1	80
6.1.1	win	2020-04-17	13:01:30	1	1	1	USRTblock	1	USRT	83	600000	#ff0000	10pct	1	50pct	50pct	6000	438860	444865	438499	57	445170	305	0	1	81
6.1.1	win	2020-04-17	13:01:30	1	1	1	USRTblock	1	USRT	84	600000	#ff0000	10pct	1	50pct	50pct	6000	445174	451181	444865	57	451448	267	0	1	82
6.1.1	win	2020-04-17	13:01:30	1	1	1	USRTblock	1	USRT	85	600000	#ff0000	10pct	1	50pct	50pct	5000	451452	456463	451181	57	456735	272	0	1	83
6.1.1	win	2020-04-17	13:01:30	1	1	1	USRTblock	1	USRT	86	600000	#ff0000	10pct	1	50pct	50pct	2000	456739	458747	456463	57	459046	299	0	1	84
6.1.1	win	2020-04-17	13:01:30	1	1	1	USRTblock	1	USRT	87	600000	#ff0000	10pct	1	50pct	50pct	2000	459050	461063	458747	57	461337	274	0	1	85
6.1.1	win	2020-04-17	13:01:30	1	1	1	USRTblock	1	USRT	88	600000	#ff0000	10pct	1	50pct	50pct	2000	461340	463346	461063	57	463659	313	0	1	86
6.1.1	win	2020-04-17	13:01:30	1	1	1	USRTblock	1	USRT	89	600000	#ff0000	10pct	1	50pct	50pct	5000	463663	468680	463346	57	468957	277	0	1	87
6.1.1	win	2020-04-17	13:01:30	1	1	1	USRTblock	1	USRT	90	600000	#ff0000	10pct	1	50pct	50pct	8000	468960	476979	468680	57	477308	329	0	1	88
6.1.1	win	2020-04-17	13:01:30	1	1	1	USRTblock	1	USRT	91	600000	#ff0000	10pct	1	50pct	50pct	2000	477311	479328	476979	57	479740	412	0	1	89
6.1.1	win	2020-04-17	13:01:30	1	1	1	USRTblock	1	USRT	92	600000	#ff0000	10pct	1	50pct	50pct	8000	479744	487761	479328	57	488093	332	0	1	90
6.1.1	win	2020-04-17	13:01:30	1	1	1	USRTblock	1	USRT	93	600000	#ff0000	10pct	1	50pct	50pct	2000	488097	490111	487761	57	490482	371	0	1	91
6.1.1	win	2020-04-17	13:01:30	1	1	1	USRTblock	1	USRT	94	600000	#ff0000	10pct	1	50pct	50pct	2000	490486	492494	490111	57	492824	330	0	1	92
6.1.1	win	2020-04-17	13:01:30	1	1	1	USRTblock	1	USRT	95	600000	#ff0000	10pct	1	50pct	50pct	8000	492827	500844	492494	57	501094	250	0	1	93
6.1.1	win	2020-04-17	13:01:30	1	1	1	USRTblock	1	USRT	96	600000	#ff0000	10pct	1	50pct	50pct	6000	501097	507110	500844	57	507474	364	0	1	94
6.1.1	win	2020-04-17	13:01:30	1	1	1	USRTblock	1	USRT	97	600000	#ff0000	10pct	1	50pct	50pct	7000	507477	514492	507110	57	514946	454	0	1	95
6.1.1	win	2020-04-17	13:01:30	1	1	1	USRTblock	1	USRT	98	600000	#ff0000	10pct	1	50pct	50pct	5000	514950	519957	514492	57	520238	281	0	1	96
6.1.1	win	2020-04-17	13:01:30	1	1	1	USRTblock	1	USRT	99	600000	#ff0000	10pct	1	50pct	50pct	4000	520242	524257	519957	57	524531	274	0	1	97
6.1.1	win	2020-04-17	13:01:30	1	1	1	USRTblock	1	USRT	100	600000	#ff0000	10pct	1	50pct	50pct	7000	524535	531540	524257	57	531852	312	0	1	98
6.1.1	win	2020-04-17	13:01:30	1	1	1	USRTblock	1	USRT	101	600000	#ff0000	10pct	1	50pct	50pct	8000	531855	539873	531540	57	540193	320	0	1	99
6.1.1	win	2020-04-17	13:01:30	1	1	1	USRTblock	1	USRT	102	600000	#ff0000	10pct	1	50pct	50pct	5000	540196	545205	539873	57	545491	286	0	1	100
6.1.1	win	2020-04-17	13:01:30	1	1	1	USRTblock	1	USRT	103	600000	#ff0000	10pct	1	50pct	50pct	5000	545494	550505	545205	57	550775	270	0	1	101
6.1.1	win	2020-04-17	13:01:30	1	1	1	USRTblock	1	USRT	104	600000	#ff0000	10pct	1	50pct	50pct	5000	550778	555787	550505	57	556119	332	0	1	102
6.1.1	win	2020-04-17	13:01:30	1	1	1	USRTblock	1	USRT	105	600000	#ff0000	10pct	1	50pct	50pct	3000	556122	559137	555787	57	559453	316	0	1	103
6.1.1	win	2020-04-17	13:01:30	1	1	1	USRTblock	1	USRT	106	600000	#ff0000	10pct	1	50pct	50pct	8000	559457	567470	559137	57	567726	256	0	1	104
6.1.1	win	2020-04-17	13:01:30	1	1	1	USRTblock	1	USRT	107	600000	#ff0000	10pct	1	50pct	50pct	8000	567730	575736	567470	57	576007	271	0	1	105
6.1.1	win	2020-04-17	13:01:30	1	1	1	USRTblock	1	USRT	108	600000	#ff0000	10pct	1	50pct	50pct	6000	576010	582018	575736	57	582312	294	0	1	106
6.1.1	win	2020-04-17	13:01:30	1	1	1	USRTblock	1	USRT	109	600000	#ff0000	10pct	1	50pct	50pct	7000	582316	589335	582018	57	589744	409	0	1	107
6.1.1	win	2020-04-17	13:01:30	1	1	1	USRTblock	1	USRT	110	600000	#ff0000	10pct	1	50pct	50pct	6000	589748	595767	589335	57	596157	390	0	1	108
6.1.1	win	2020-04-17	13:01:30	1	1	1	USRTblock	1	USRT	111	600000	#ff0000	10pct	1	50pct	50pct	6000	596161	-1	595767	0	596307	0	1	2	109
