build	computer.platform	date	time	subject	group	sessionid	blockcode	blocknum	trialcode	trialnum	testduration	targetcolor	targetsize	fixed	targetx	targety	stiminterval	trialStart	shape.targetcircle.timestamp	lastCircleTimestamp	response	rt_elapsed	rt	EarlyResponse	countEarlyResponses	countResponses
6.1.1	win	2020-04-15	19:07:18	1	1	1	USRTblock	1	USRT	3	600000	#ff0000	10pct	1	50pct	50pct	4000	2836	6846	2108	57	7100	254	0	0	1
6.1.1	win	2020-04-15	19:07:18	1	1	1	USRTblock	1	USRT	4	600000	#ff0000	10pct	1	50pct	50pct	5000	7113	12127	6846	57	12414	287	0	0	2
6.1.1	win	2020-04-15	19:07:18	1	1	1	USRTblock	1	USRT	5	600000	#ff0000	10pct	1	50pct	50pct	3000	12419	15427	12127	57	15780	353	0	0	3
6.1.1	win	2020-04-15	19:07:18	1	1	1	USRTblock	1	USRT	6	600000	#ff0000	10pct	1	50pct	50pct	6000	15784	21793	15427	57	22067	274	0	0	4
6.1.1	win	2020-04-15	19:07:18	1	1	1	USRTblock	1	USRT	7	600000	#ff0000	10pct	1	50pct	50pct	4000	22071	26076	21793	57	26384	308	0	0	5
6.1.1	win	2020-04-15	19:07:18	1	1	1	USRTblock	1	USRT	8	600000	#ff0000	10pct	1	50pct	50pct	4000	26387	30392	26076	57	30653	261	0	0	6
6.1.1	win	2020-04-15	19:07:18	1	1	1	USRTblock	1	USRT	9	600000	#ff0000	10pct	1	50pct	50pct	6000	30657	36676	30392	57	36914	238	0	0	7
6.1.1	win	2020-04-15	19:07:18	1	1	1	USRTblock	1	USRT	10	600000	#ff0000	10pct	1	50pct	50pct	5000	36918	41924	36676	57	42434	510	0	0	8
6.1.1	win	2020-04-15	19:07:18	1	1	1	USRTblock	1	USRT	11	600000	#ff0000	10pct	1	50pct	50pct	5000	42438	47457	41924	57	47884	427	0	0	9
6.1.1	win	2020-04-15	19:07:18	1	1	1	USRTblock	1	USRT	12	600000	#ff0000	10pct	1	50pct	50pct	6000	47888	53906	47457	57	54280	374	0	0	10
6.1.1	win	2020-04-15	19:07:18	1	1	1	USRTblock	1	USRT	13	600000	#ff0000	10pct	1	50pct	50pct	2000	54283	56290	53906	57	57325	1035	0	0	11
6.1.1	win	2020-04-15	19:07:18	1	1	1	USRTblock	1	USRT	14	600000	#ff0000	10pct	1	50pct	50pct	4000	57328	61339	56290	57	61595	256	0	0	12
6.1.1	win	2020-04-15	19:07:18	1	1	1	USRTblock	1	USRT	15	600000	#ff0000	10pct	1	50pct	50pct	8000	61598	69605	61339	57	69848	243	0	0	13
6.1.1	win	2020-04-15	19:07:18	1	1	1	USRTblock	1	USRT	16	600000	#ff0000	10pct	1	50pct	50pct	3000	69851	72871	69605	57	73227	356	0	0	14
6.1.1	win	2020-04-15	19:07:18	1	1	1	USRTblock	1	USRT	17	600000	#ff0000	10pct	1	50pct	50pct	6000	73231	79237	72871	57	79691	454	0	0	15
6.1.1	win	2020-04-15	19:07:18	1	1	1	USRTblock	1	USRT	18	600000	#ff0000	10pct	1	50pct	50pct	2000	79694	81703	79237	57	82191	488	0	0	16
6.1.1	win	2020-04-15	19:07:18	1	1	1	USRTblock	1	USRT	19	600000	#ff0000	10pct	1	50pct	50pct	3000	82194	85203	81703	57	85847	644	0	0	17
6.1.1	win	2020-04-15	19:07:18	1	1	1	USRTblock	1	USRT	20	600000	#ff0000	10pct	1	50pct	50pct	5000	85851	90870	85203	57	91116	246	0	0	18
6.1.1	win	2020-04-15	19:07:18	1	1	1	USRTblock	1	USRT	21	600000	#ff0000	10pct	1	50pct	50pct	8000	91119	99136	90870	57	99405	269	0	0	19
6.1.1	win	2020-04-15	19:07:18	1	1	1	USRTblock	1	USRT	22	600000	#ff0000	10pct	1	50pct	50pct	2000	99408	101418	99136	57	101824	406	0	0	20
6.1.1	win	2020-04-15	19:07:18	1	1	1	USRTblock	1	USRT	23	600000	#ff0000	10pct	1	50pct	50pct	7000	101828	108835	101418	57	109323	488	0	0	21
6.1.1	win	2020-04-15	19:07:18	1	1	1	USRTblock	1	USRT	24	600000	#ff0000	10pct	1	50pct	50pct	8000	109327	117334	108835	57	117602	268	0	0	22
6.1.1	win	2020-04-15	19:07:18	1	1	1	USRTblock	1	USRT	25	600000	#ff0000	10pct	1	50pct	50pct	6000	117605	123617	117334	57	123859	242	0	0	23
6.1.1	win	2020-04-15	19:07:18	1	1	1	USRTblock	1	USRT	26	600000	#ff0000	10pct	1	50pct	50pct	7000	123863	130882	123617	57	131135	253	0	0	24
6.1.1	win	2020-04-15	19:07:18	1	1	1	USRTblock	1	USRT	27	600000	#ff0000	10pct	1	50pct	50pct	6000	131140	137148	130882	57	137424	276	0	0	25
6.1.1	win	2020-04-15	19:07:18	1	1	1	USRTblock	1	USRT	28	600000	#ff0000	10pct	1	50pct	50pct	2000	137427	139448	137148	57	139716	268	0	0	26
6.1.1	win	2020-04-15	19:07:18	1	1	1	USRTblock	1	USRT	29	600000	#ff0000	10pct	1	50pct	50pct	6000	139719	145731	139448	57	145982	251	0	0	27
6.1.1	win	2020-04-15	19:07:18	1	1	1	USRTblock	1	USRT	30	600000	#ff0000	10pct	1	50pct	50pct	4000	145986	149996	145731	57	150309	313	0	0	28
6.1.1	win	2020-04-15	19:07:18	1	1	1	USRTblock	1	USRT	31	600000	#ff0000	10pct	1	50pct	50pct	8000	150312	158330	149996	57	158583	253	0	0	29
6.1.1	win	2020-04-15	19:07:18	1	1	1	USRTblock	1	USRT	32	600000	#ff0000	10pct	1	50pct	50pct	8000	158586	166595	158330	57	166864	269	0	0	30
6.1.1	win	2020-04-15	19:07:18	1	1	1	USRTblock	1	USRT	33	600000	#ff0000	10pct	1	50pct	50pct	6000	166867	172878	166595	57	173123	245	0	0	31
6.1.1	win	2020-04-15	19:07:18	1	1	1	USRTblock	1	USRT	34	600000	#ff0000	10pct	1	50pct	50pct	5000	173126	178144	172878	57	178463	319	0	0	32
6.1.1	win	2020-04-15	19:07:18	1	1	1	USRTblock	1	USRT	35	600000	#ff0000	10pct	1	50pct	50pct	7000	178466	185477	178144	57	185801	324	0	0	33
6.1.1	win	2020-04-15	19:07:18	1	1	1	USRTblock	1	USRT	36	600000	#ff0000	10pct	1	50pct	50pct	7000	185804	192810	185477	57	193085	275	0	0	34
6.1.1	win	2020-04-15	19:07:18	1	1	1	USRTblock	1	USRT	37	600000	#ff0000	10pct	1	50pct	50pct	4000	193090	197109	192810	57	197434	325	0	0	35
6.1.1	win	2020-04-15	19:07:18	1	1	1	USRTblock	1	USRT	38	600000	#ff0000	10pct	1	50pct	50pct	7000	197438	204459	197109	57	204758	299	0	0	36
6.1.1	win	2020-04-15	19:07:18	1	1	1	USRTblock	1	USRT	39	600000	#ff0000	10pct	1	50pct	50pct	4000	204761	208774	204459	57	209081	307	0	0	37
6.1.1	win	2020-04-15	19:07:18	1	1	1	USRTblock	1	USRT	40	600000	#ff0000	10pct	1	50pct	50pct	5000	209085	214090	208774	57	214374	284	0	0	38
6.1.1	win	2020-04-15	19:07:18	1	1	1	USRTblock	1	USRT	41	600000	#ff0000	10pct	1	50pct	50pct	4000	214378	218390	214090	57	218668	278	0	0	39
6.1.1	win	2020-04-15	19:07:18	1	1	1	USRTblock	1	USRT	42	600000	#ff0000	10pct	1	50pct	50pct	5000	218672	223689	218390	57	223997	308	0	0	40
6.1.1	win	2020-04-15	19:07:18	1	1	1	USRTblock	1	USRT	43	600000	#ff0000	10pct	1	50pct	50pct	4000	224002	228022	223689	57	228284	262	0	0	41
6.1.1	win	2020-04-15	19:07:18	1	1	1	USRTblock	1	USRT	44	600000	#ff0000	10pct	1	50pct	50pct	7000	228287	-1	228022	57	232754	0	1	1	42
6.1.1	win	2020-04-15	19:07:18	1	1	1	USRTblock	1	USRT	45	600000	#ff0000	10pct	1	50pct	50pct	2000	232758	234771	-1	57	235087	316	0	1	43
6.1.1	win	2020-04-15	19:07:18	1	1	1	USRTblock	1	USRT	46	600000	#ff0000	10pct	1	50pct	50pct	8000	235090	243105	234771	57	243355	250	0	1	44
6.1.1	win	2020-04-15	19:07:18	1	1	1	USRTblock	1	USRT	47	600000	#ff0000	10pct	1	50pct	50pct	3000	243358	246370	243105	57	246748	378	0	1	45
6.1.1	win	2020-04-15	19:07:18	1	1	1	USRTblock	1	USRT	48	600000	#ff0000	10pct	1	50pct	50pct	7000	246751	253770	246370	57	254037	267	0	1	46
6.1.1	win	2020-04-15	19:07:18	1	1	1	USRTblock	1	USRT	49	600000	#ff0000	10pct	1	50pct	50pct	4000	254041	258053	253770	57	258653	600	0	1	47
6.1.1	win	2020-04-15	19:07:18	1	1	1	USRTblock	1	USRT	50	600000	#ff0000	10pct	1	50pct	50pct	4000	258657	262669	258053	57	262961	292	0	1	48
6.1.1	win	2020-04-15	19:07:18	1	1	1	USRTblock	1	USRT	51	600000	#ff0000	10pct	1	50pct	50pct	7000	262965	269986	262669	57	270288	302	0	1	49
6.1.1	win	2020-04-15	19:07:18	1	1	1	USRTblock	1	USRT	52	600000	#ff0000	10pct	1	50pct	50pct	6000	270292	276301	269986	57	276608	307	0	1	50
6.1.1	win	2020-04-15	19:07:18	1	1	1	USRTblock	1	USRT	53	600000	#ff0000	10pct	1	50pct	50pct	5000	276612	281634	276301	57	281891	257	0	1	51
6.1.1	win	2020-04-15	19:07:18	1	1	1	USRTblock	1	USRT	54	600000	#ff0000	10pct	1	50pct	50pct	6000	281895	287900	281634	57	288210	310	0	1	52
6.1.1	win	2020-04-15	19:07:18	1	1	1	USRTblock	1	USRT	55	600000	#ff0000	10pct	1	50pct	50pct	7000	288214	295233	287900	57	295510	277	0	1	53
6.1.1	win	2020-04-15	19:07:18	1	1	1	USRTblock	1	USRT	56	600000	#ff0000	10pct	1	50pct	50pct	2000	295514	297531	295233	57	297834	303	0	1	54
6.1.1	win	2020-04-15	19:07:18	1	1	1	USRTblock	1	USRT	57	600000	#ff0000	10pct	1	50pct	50pct	3000	297838	300849	297531	57	301171	322	0	1	55
6.1.1	win	2020-04-15	19:07:18	1	1	1	USRTblock	1	USRT	58	600000	#ff0000	10pct	1	50pct	50pct	5000	301175	306181	300849	57	306429	248	0	1	56
6.1.1	win	2020-04-15	19:07:18	1	1	1	USRTblock	1	USRT	59	600000	#ff0000	10pct	1	50pct	50pct	2000	306433	308447	306181	57	308755	308	0	1	57
6.1.1	win	2020-04-15	19:07:18	1	1	1	USRTblock	1	USRT	60	600000	#ff0000	10pct	1	50pct	50pct	5000	308758	313764	308447	57	314218	454	0	1	58
6.1.1	win	2020-04-15	19:07:18	1	1	1	USRTblock	1	USRT	61	600000	#ff0000	10pct	1	50pct	50pct	7000	314222	321230	313764	57	321488	258	0	1	59
6.1.1	win	2020-04-15	19:07:18	1	1	1	USRTblock	1	USRT	62	600000	#ff0000	10pct	1	50pct	50pct	7000	321492	328512	321230	57	328775	263	0	1	60
6.1.1	win	2020-04-15	19:07:18	1	1	1	USRTblock	1	USRT	63	600000	#ff0000	10pct	1	50pct	50pct	2000	328779	330795	328512	57	331191	396	0	1	61
6.1.1	win	2020-04-15	19:07:18	1	1	1	USRTblock	1	USRT	64	600000	#ff0000	10pct	1	50pct	50pct	8000	331194	339212	330795	57	339517	305	0	1	62
6.1.1	win	2020-04-15	19:07:18	1	1	1	USRTblock	1	USRT	65	600000	#ff0000	10pct	1	50pct	50pct	3000	339521	342527	339212	57	342869	342	0	1	63
6.1.1	win	2020-04-15	19:07:18	1	1	1	USRTblock	1	USRT	66	600000	#ff0000	10pct	1	50pct	50pct	6000	342872	348877	342527	57	349169	292	0	1	64
6.1.1	win	2020-04-15	19:07:18	1	1	1	USRTblock	1	USRT	67	600000	#ff0000	10pct	1	50pct	50pct	2000	349172	351193	348877	57	351490	297	0	1	65
6.1.1	win	2020-04-15	19:07:18	1	1	1	USRTblock	1	USRT	68	600000	#ff0000	10pct	1	50pct	50pct	4000	351494	355510	351193	57	355774	264	0	1	66
6.1.1	win	2020-04-15	19:07:18	1	1	1	USRTblock	1	USRT	69	600000	#ff0000	10pct	1	50pct	50pct	7000	355777	362793	355510	57	363052	259	0	1	67
6.1.1	win	2020-04-15	19:07:18	1	1	1	USRTblock	1	USRT	70	600000	#ff0000	10pct	1	50pct	50pct	7000	363055	370074	362793	57	370369	295	0	1	68
6.1.1	win	2020-04-15	19:07:18	1	1	1	USRTblock	1	USRT	71	600000	#ff0000	10pct	1	50pct	50pct	2000	370374	372392	370074	57	372914	522	0	1	69
6.1.1	win	2020-04-15	19:07:18	1	1	1	USRTblock	1	USRT	72	600000	#ff0000	10pct	1	50pct	50pct	7000	372917	379924	372392	57	380184	260	0	1	70
6.1.1	win	2020-04-15	19:07:18	1	1	1	USRTblock	1	USRT	73	600000	#ff0000	10pct	1	50pct	50pct	7000	380188	387206	379924	57	387459	253	0	1	71
6.1.1	win	2020-04-15	19:07:18	1	1	1	USRTblock	1	USRT	74	600000	#ff0000	10pct	1	50pct	50pct	7000	387463	394472	387206	57	394734	262	0	1	72
6.1.1	win	2020-04-15	19:07:18	1	1	1	USRTblock	1	USRT	75	600000	#ff0000	10pct	1	50pct	50pct	7000	394737	401755	394472	57	402049	294	0	1	73
6.1.1	win	2020-04-15	19:07:18	1	1	1	USRTblock	1	USRT	76	600000	#ff0000	10pct	1	50pct	50pct	7000	402053	409070	401755	57	409328	258	0	1	74
6.1.1	win	2020-04-15	19:07:18	1	1	1	USRTblock	1	USRT	77	600000	#ff0000	10pct	1	50pct	50pct	8000	409331	417337	409070	57	417591	254	0	1	75
6.1.1	win	2020-04-15	19:07:18	1	1	1	USRTblock	1	USRT	78	600000	#ff0000	10pct	1	50pct	50pct	8000	417594	425603	417337	57	425855	252	0	1	76
6.1.1	win	2020-04-15	19:07:18	1	1	1	USRTblock	1	USRT	79	600000	#ff0000	10pct	1	50pct	50pct	3000	425858	428868	425603	57	429253	385	0	1	77
6.1.1	win	2020-04-15	19:07:18	1	1	1	USRTblock	1	USRT	80	600000	#ff0000	10pct	1	50pct	50pct	5000	429256	434268	428868	57	434529	261	0	1	78
6.1.1	win	2020-04-15	19:07:18	1	1	1	USRTblock	1	USRT	81	600000	#ff0000	10pct	1	50pct	50pct	6000	434532	440551	434268	57	440759	208	0	1	79
6.1.1	win	2020-04-15	19:07:18	1	1	1	USRTblock	1	USRT	82	600000	#ff0000	10pct	1	50pct	50pct	6000	440762	446767	440551	57	447012	245	0	1	80
6.1.1	win	2020-04-15	19:07:18	1	1	1	USRTblock	1	USRT	83	600000	#ff0000	10pct	1	50pct	50pct	4000	447015	451033	446767	57	451289	256	0	1	81
6.1.1	win	2020-04-15	19:07:18	1	1	1	USRTblock	1	USRT	84	600000	#ff0000	10pct	1	50pct	50pct	8000	451293	459300	451033	57	459542	242	0	1	82
6.1.1	win	2020-04-15	19:07:18	1	1	1	USRTblock	1	USRT	85	600000	#ff0000	10pct	1	50pct	50pct	3000	459546	462565	459300	57	462830	265	0	1	83
6.1.1	win	2020-04-15	19:07:18	1	1	1	USRTblock	1	USRT	86	600000	#ff0000	10pct	1	50pct	50pct	4000	462833	466848	462565	57	467586	738	0	1	84
6.1.1	win	2020-04-15	19:07:18	1	1	1	USRTblock	1	USRT	87	600000	#ff0000	10pct	1	50pct	50pct	5000	467589	472598	466848	57	472887	289	0	1	85
6.1.1	win	2020-04-15	19:07:18	1	1	1	USRTblock	1	USRT	88	600000	#ff0000	10pct	1	50pct	50pct	8000	472890	480897	472598	57	481151	254	0	1	86
6.1.1	win	2020-04-15	19:07:18	1	1	1	USRTblock	1	USRT	89	600000	#ff0000	10pct	1	50pct	50pct	3000	481154	484163	480897	57	484439	276	0	1	87
6.1.1	win	2020-04-15	19:07:18	1	1	1	USRTblock	1	USRT	90	600000	#ff0000	10pct	1	50pct	50pct	3000	484442	487463	484163	57	487791	328	0	1	88
6.1.1	win	2020-04-15	19:07:18	1	1	1	USRTblock	1	USRT	91	600000	#ff0000	10pct	1	50pct	50pct	3000	487795	490813	487463	57	491075	262	0	1	89
6.1.1	win	2020-04-15	19:07:18	1	1	1	USRTblock	1	USRT	92	600000	#ff0000	10pct	1	50pct	50pct	5000	491078	496095	490813	57	496397	302	0	1	90
6.1.1	win	2020-04-15	19:07:18	1	1	1	USRTblock	1	USRT	93	600000	#ff0000	10pct	1	50pct	50pct	3000	496401	499411	496095	57	499690	279	0	1	91
6.1.1	win	2020-04-15	19:07:18	1	1	1	USRTblock	1	USRT	94	600000	#ff0000	10pct	1	50pct	50pct	3000	499693	502712	499411	57	502963	251	0	1	92
6.1.1	win	2020-04-15	19:07:18	1	1	1	USRTblock	1	USRT	95	600000	#ff0000	10pct	1	50pct	50pct	2000	502966	504978	502712	57	505248	270	0	1	93
6.1.1	win	2020-04-15	19:07:18	1	1	1	USRTblock	1	USRT	96	600000	#ff0000	10pct	1	50pct	50pct	5000	505252	510261	504978	57	510518	257	0	1	94
6.1.1	win	2020-04-15	19:07:18	1	1	1	USRTblock	1	USRT	97	600000	#ff0000	10pct	1	50pct	50pct	8000	510521	518527	510261	57	518774	247	0	1	95
6.1.1	win	2020-04-15	19:07:18	1	1	1	USRTblock	1	USRT	98	600000	#ff0000	10pct	1	50pct	50pct	7000	518777	525793	518527	57	526057	264	0	1	96
6.1.1	win	2020-04-15	19:07:18	1	1	1	USRTblock	1	USRT	99	600000	#ff0000	10pct	1	50pct	50pct	7000	526060	533075	525793	57	533460	385	0	1	97
6.1.1	win	2020-04-15	19:07:18	1	1	1	USRTblock	1	USRT	100	600000	#ff0000	10pct	1	50pct	50pct	8000	533464	541474	533075	57	541742	268	0	1	98
6.1.1	win	2020-04-15	19:07:18	1	1	1	USRTblock	1	USRT	101	600000	#ff0000	10pct	1	50pct	50pct	3000	541747	544757	541474	57	545131	374	0	1	99
6.1.1	win	2020-04-15	19:07:18	1	1	1	USRTblock	1	USRT	102	600000	#ff0000	10pct	1	50pct	50pct	5000	545135	550140	544757	57	550433	293	0	1	100
6.1.1	win	2020-04-15	19:07:18	1	1	1	USRTblock	1	USRT	103	600000	#ff0000	10pct	1	50pct	50pct	2000	550436	552456	550140	57	552756	300	0	1	101
6.1.1	win	2020-04-15	19:07:18	1	1	1	USRTblock	1	USRT	104	600000	#ff0000	10pct	1	50pct	50pct	7000	552759	559773	552456	57	560031	258	0	1	102
6.1.1	win	2020-04-15	19:07:18	1	1	1	USRTblock	1	USRT	105	600000	#ff0000	10pct	1	50pct	50pct	3000	560035	563055	559773	57	563320	265	0	1	103
6.1.1	win	2020-04-15	19:07:18	1	1	1	USRTblock	1	USRT	106	600000	#ff0000	10pct	1	50pct	50pct	6000	563323	569338	563055	57	569600	262	0	1	104
6.1.1	win	2020-04-15	19:07:18	1	1	1	USRTblock	1	USRT	107	600000	#ff0000	10pct	1	50pct	50pct	2000	569603	571621	569338	57	571945	324	0	1	105
6.1.1	win	2020-04-15	19:07:18	1	1	1	USRTblock	1	USRT	108	600000	#ff0000	10pct	1	50pct	50pct	3000	571948	574954	571621	57	575230	276	0	1	106
6.1.1	win	2020-04-15	19:07:18	1	1	1	USRTblock	1	USRT	109	600000	#ff0000	10pct	1	50pct	50pct	5000	575233	580254	574954	57	580560	306	0	1	107
6.1.1	win	2020-04-15	19:07:18	1	1	1	USRTblock	1	USRT	110	600000	#ff0000	10pct	1	50pct	50pct	4000	580563	584570	580254	57	584923	353	0	1	108
6.1.1	win	2020-04-15	19:07:18	1	1	1	USRTblock	1	USRT	111	600000	#ff0000	10pct	1	50pct	50pct	3000	584926	587936	584570	57	588245	309	0	1	109
6.1.1	win	2020-04-15	19:07:18	1	1	1	USRTblock	1	USRT	112	600000	#ff0000	10pct	1	50pct	50pct	2000	588249	590270	587936	57	590634	364	0	1	110
6.1.1	win	2020-04-15	19:07:18	1	1	1	USRTblock	1	USRT	113	600000	#ff0000	10pct	1	50pct	50pct	7000	590637	597652	590270	57	597957	305	0	1	111
6.1.1	win	2020-04-15	19:07:18	1	1	1	USRTblock	1	USRT	114	600000	#ff0000	10pct	1	50pct	50pct	4000	597961	-1	597652	0	598069	0	1	2	112
