build	computer.platform	date	time	subject	group	sessionid	blockcode	blocknum	trialcode	trialnum	testduration	targetcolor	targetsize	fixed	targetx	targety	stiminterval	trialStart	shape.targetcircle.timestamp	lastCircleTimestamp	response	rt_elapsed	rt	EarlyResponse	countEarlyResponses	countResponses
6.1.1	win	2020-04-16	16:03:02	1	1	1	USRTblock	1	USRT	3	600000	#ff0000	10pct	1	50pct	50pct	5000	2984	8005	2235	57	8252	247	0	0	1
6.1.1	win	2020-04-16	16:03:02	1	1	1	USRTblock	1	USRT	4	600000	#ff0000	10pct	1	50pct	50pct	2000	8307	10321	8005	57	10685	364	0	0	2
6.1.1	win	2020-04-16	16:03:02	1	1	1	USRTblock	1	USRT	5	600000	#ff0000	10pct	1	50pct	50pct	5000	10689	15704	10321	57	15942	238	0	0	3
6.1.1	win	2020-04-16	16:03:02	1	1	1	USRTblock	1	USRT	6	600000	#ff0000	10pct	1	50pct	50pct	7000	15946	22953	15704	57	23193	240	0	0	4
6.1.1	win	2020-04-16	16:03:02	1	1	1	USRTblock	1	USRT	7	600000	#ff0000	10pct	1	50pct	50pct	8000	23197	-1	22953	57	30677	0	1	1	5
6.1.1	win	2020-04-16	16:03:02	1	1	1	USRTblock	1	USRT	8	600000	#ff0000	10pct	1	50pct	50pct	8000	30681	38685	-1	57	38977	292	0	1	6
6.1.1	win	2020-04-16	16:03:02	1	1	1	USRTblock	1	USRT	9	600000	#ff0000	10pct	1	50pct	50pct	8000	38980	46984	38685	57	47298	314	0	1	7
6.1.1	win	2020-04-16	16:03:02	1	1	1	USRTblock	1	USRT	10	600000	#ff0000	10pct	1	50pct	50pct	8000	47301	55317	46984	57	55641	324	0	1	8
6.1.1	win	2020-04-16	16:03:02	1	1	1	USRTblock	1	USRT	11	600000	#ff0000	10pct	1	50pct	50pct	4000	55645	59666	55317	57	59943	277	0	1	9
6.1.1	win	2020-04-16	16:03:02	1	1	1	USRTblock	1	USRT	12	600000	#ff0000	10pct	1	50pct	50pct	5000	59946	64966	59666	57	65306	340	0	1	10
6.1.1	win	2020-04-16	16:03:02	1	1	1	USRTblock	1	USRT	13	600000	#ff0000	10pct	1	50pct	50pct	6000	65310	71315	64966	57	71627	312	0	1	11
6.1.1	win	2020-04-16	16:03:02	1	1	1	USRTblock	1	USRT	14	600000	#ff0000	10pct	1	50pct	50pct	2000	71631	73648	71315	57	73975	327	0	1	12
6.1.1	win	2020-04-16	16:03:02	1	1	1	USRTblock	1	USRT	15	600000	#ff0000	10pct	1	50pct	50pct	7000	73978	80998	73648	57	81281	283	0	1	13
6.1.1	win	2020-04-16	16:03:02	1	1	1	USRTblock	1	USRT	16	600000	#ff0000	10pct	1	50pct	50pct	3000	81285	84297	80998	57	84760	463	0	1	14
6.1.1	win	2020-04-16	16:03:02	1	1	1	USRTblock	1	USRT	17	600000	#ff0000	10pct	1	50pct	50pct	5000	84763	89780	84297	57	90029	249	0	1	15
6.1.1	win	2020-04-16	16:03:02	1	1	1	USRTblock	1	USRT	18	600000	#ff0000	10pct	1	50pct	50pct	8000	90033	98047	89780	57	98309	262	0	1	16
6.1.1	win	2020-04-16	16:03:02	1	1	1	USRTblock	1	USRT	19	600000	#ff0000	10pct	1	50pct	50pct	4000	98313	102328	98047	57	102850	522	0	1	17
6.1.1	win	2020-04-16	16:03:02	1	1	1	USRTblock	1	USRT	20	600000	#ff0000	10pct	1	50pct	50pct	3000	102854	105861	102328	57	106286	425	0	1	18
6.1.1	win	2020-04-16	16:03:02	1	1	1	USRTblock	1	USRT	21	600000	#ff0000	10pct	1	50pct	50pct	5000	106290	111294	105861	57	111744	450	0	1	19
6.1.1	win	2020-04-16	16:03:02	1	1	1	USRTblock	1	USRT	22	600000	#ff0000	10pct	1	50pct	50pct	5000	111749	116761	111294	57	117148	387	0	1	20
6.1.1	win	2020-04-16	16:03:02	1	1	1	USRTblock	1	USRT	23	600000	#ff0000	10pct	1	50pct	50pct	8000	117151	125161	116761	57	125438	277	0	1	21
6.1.1	win	2020-04-16	16:03:02	1	1	1	USRTblock	1	USRT	24	600000	#ff0000	10pct	1	50pct	50pct	7000	125442	132459	125161	57	132719	260	0	1	22
6.1.1	win	2020-04-16	16:03:02	1	1	1	USRTblock	1	USRT	25	600000	#ff0000	10pct	1	50pct	50pct	3000	132723	135742	132459	57	135984	242	0	1	23
6.1.1	win	2020-04-16	16:03:02	1	1	1	USRTblock	1	USRT	26	600000	#ff0000	10pct	1	50pct	50pct	4000	135987	139991	135742	57	140238	247	0	1	24
6.1.1	win	2020-04-16	16:03:02	1	1	1	USRTblock	1	USRT	27	600000	#ff0000	10pct	1	50pct	50pct	4000	140241	144258	139991	57	144513	255	0	1	25
6.1.1	win	2020-04-16	16:03:02	1	1	1	USRTblock	1	USRT	28	600000	#ff0000	10pct	1	50pct	50pct	2000	144516	146524	144258	57	146870	346	0	1	26
6.1.1	win	2020-04-16	16:03:02	1	1	1	USRTblock	1	USRT	29	600000	#ff0000	10pct	1	50pct	50pct	3000	146873	149890	146524	57	150135	245	0	1	27
6.1.1	win	2020-04-16	16:03:02	1	1	1	USRTblock	1	USRT	30	600000	#ff0000	10pct	1	50pct	50pct	5000	150138	155157	149890	57	155421	264	0	1	28
6.1.1	win	2020-04-16	16:03:02	1	1	1	USRTblock	1	USRT	31	600000	#ff0000	10pct	1	50pct	50pct	3000	155426	158439	155157	57	158879	440	0	1	29
6.1.1	win	2020-04-16	16:03:02	1	1	1	USRTblock	1	USRT	32	600000	#ff0000	10pct	1	50pct	50pct	2000	158882	160896	158439	57	161126	230	0	1	30
6.1.1	win	2020-04-16	16:03:02	1	1	1	USRTblock	1	USRT	33	600000	#ff0000	10pct	1	50pct	50pct	3000	161130	164139	160896	57	164394	255	0	1	31
6.1.1	win	2020-04-16	16:03:02	1	1	1	USRTblock	1	USRT	34	600000	#ff0000	10pct	1	50pct	50pct	5000	164398	169405	164139	57	169682	277	0	1	32
6.1.1	win	2020-04-16	16:03:02	1	1	1	USRTblock	1	USRT	35	600000	#ff0000	10pct	1	50pct	50pct	8000	169686	177705	169405	57	177960	255	0	1	33
6.1.1	win	2020-04-16	16:03:02	1	1	1	USRTblock	1	USRT	36	600000	#ff0000	10pct	1	50pct	50pct	3000	177963	180971	177705	57	181386	415	0	1	34
6.1.1	win	2020-04-16	16:03:02	1	1	1	USRTblock	1	USRT	37	600000	#ff0000	10pct	1	50pct	50pct	3000	181390	184404	180971	57	184682	278	0	1	35
6.1.1	win	2020-04-16	16:03:02	1	1	1	USRTblock	1	USRT	38	600000	#ff0000	10pct	1	50pct	50pct	8000	184686	192704	184404	57	192994	290	0	1	36
6.1.1	win	2020-04-16	16:03:02	1	1	1	USRTblock	1	USRT	39	600000	#ff0000	10pct	1	50pct	50pct	6000	192998	199003	192704	57	199291	288	0	1	37
6.1.1	win	2020-04-16	16:03:02	1	1	1	USRTblock	1	USRT	40	600000	#ff0000	10pct	1	50pct	50pct	2000	199295	201302	199003	57	201624	322	0	1	38
6.1.1	win	2020-04-16	16:03:02	1	1	1	USRTblock	1	USRT	41	600000	#ff0000	10pct	1	50pct	50pct	7000	201627	208635	201302	57	208889	254	0	1	39
6.1.1	win	2020-04-16	16:03:02	1	1	1	USRTblock	1	USRT	42	600000	#ff0000	10pct	1	50pct	50pct	5000	208892	213901	208635	57	214156	255	0	1	40
6.1.1	win	2020-04-16	16:03:02	1	1	1	USRTblock	1	USRT	43	600000	#ff0000	10pct	1	50pct	50pct	4000	214160	218167	213901	57	218469	302	0	1	41
6.1.1	win	2020-04-16	16:03:02	1	1	1	USRTblock	1	USRT	44	600000	#ff0000	10pct	1	50pct	50pct	4000	218472	222483	218167	57	222914	431	0	1	42
6.1.1	win	2020-04-16	16:03:02	1	1	1	USRTblock	1	USRT	45	600000	#ff0000	10pct	1	50pct	50pct	5000	222918	227933	222483	57	228290	357	0	1	43
6.1.1	win	2020-04-16	16:03:02	1	1	1	USRTblock	1	USRT	46	600000	#ff0000	10pct	1	50pct	50pct	6000	228293	234299	227933	57	234545	246	0	1	44
6.1.1	win	2020-04-16	16:03:02	1	1	1	USRTblock	1	USRT	47	600000	#ff0000	10pct	1	50pct	50pct	2000	234549	236565	234299	57	236905	340	0	1	45
6.1.1	win	2020-04-16	16:03:02	1	1	1	USRTblock	1	USRT	48	600000	#ff0000	10pct	1	50pct	50pct	8000	236908	244914	236565	57	245179	265	0	1	46
6.1.1	win	2020-04-16	16:03:02	1	1	1	USRTblock	1	USRT	49	600000	#ff0000	10pct	1	50pct	50pct	7000	245183	252197	244914	57	252479	282	0	1	47
6.1.1	win	2020-04-16	16:03:02	1	1	1	USRTblock	1	USRT	50	600000	#ff0000	10pct	1	50pct	50pct	5000	252483	257497	252197	57	257787	290	0	1	48
6.1.1	win	2020-04-16	16:03:02	1	1	1	USRTblock	1	USRT	51	600000	#ff0000	10pct	1	50pct	50pct	5000	257791	262796	257497	57	263046	250	0	1	49
6.1.1	win	2020-04-16	16:03:02	1	1	1	USRTblock	1	USRT	52	600000	#ff0000	10pct	1	50pct	50pct	7000	263050	-1	262796	57	269186	0	1	2	50
6.1.1	win	2020-04-16	16:03:02	1	1	1	USRTblock	1	USRT	53	600000	#ff0000	10pct	1	50pct	50pct	7000	269189	276195	-1	57	276446	251	0	2	51
6.1.1	win	2020-04-16	16:03:02	1	1	1	USRTblock	1	USRT	54	600000	#ff0000	10pct	1	50pct	50pct	7000	276449	283461	276195	57	283723	262	0	2	52
6.1.1	win	2020-04-16	16:03:02	1	1	1	USRTblock	1	USRT	55	600000	#ff0000	10pct	1	50pct	50pct	2000	283726	285744	283461	57	286112	368	0	2	53
6.1.1	win	2020-04-16	16:03:02	1	1	1	USRTblock	1	USRT	56	600000	#ff0000	10pct	1	50pct	50pct	8000	286115	294127	285744	57	294421	294	0	2	54
6.1.1	win	2020-04-16	16:03:02	1	1	1	USRTblock	1	USRT	57	600000	#ff0000	10pct	1	50pct	50pct	7000	294424	301442	294127	57	301786	344	0	2	55
6.1.1	win	2020-04-16	16:03:02	1	1	1	USRTblock	1	USRT	58	600000	#ff0000	10pct	1	50pct	50pct	4000	301790	305808	301442	57	306227	419	0	2	56
6.1.1	win	2020-04-16	16:03:02	1	1	1	USRTblock	1	USRT	59	600000	#ff0000	10pct	1	50pct	50pct	8000	306230	314241	305808	57	314557	316	0	2	57
6.1.1	win	2020-04-16	16:03:02	1	1	1	USRTblock	1	USRT	60	600000	#ff0000	10pct	1	50pct	50pct	2000	314560	316574	314241	57	317123	549	0	2	58
6.1.1	win	2020-04-16	16:03:02	1	1	1	USRTblock	1	USRT	61	600000	#ff0000	10pct	1	50pct	50pct	6000	317126	323140	316574	57	323409	269	0	2	59
6.1.1	win	2020-04-16	16:03:02	1	1	1	USRTblock	1	USRT	62	600000	#ff0000	10pct	1	50pct	50pct	6000	323413	329423	323140	57	329724	301	0	2	60
6.1.1	win	2020-04-16	16:03:02	1	1	1	USRTblock	1	USRT	63	600000	#ff0000	10pct	1	50pct	50pct	2000	329728	331739	329423	57	332157	418	0	2	61
6.1.1	win	2020-04-16	16:03:02	1	1	1	USRTblock	1	USRT	64	600000	#ff0000	10pct	1	50pct	50pct	6000	332161	338172	331739	57	338423	251	0	2	62
6.1.1	win	2020-04-16	16:03:02	1	1	1	USRTblock	1	USRT	65	600000	#ff0000	10pct	1	50pct	50pct	6000	338426	344438	338172	57	344826	388	0	2	63
6.1.1	win	2020-04-16	16:03:02	1	1	1	USRTblock	1	USRT	66	600000	#ff0000	10pct	1	50pct	50pct	5000	344829	349837	344438	57	350127	290	0	2	64
6.1.1	win	2020-04-16	16:03:02	1	1	1	USRTblock	1	USRT	67	600000	#ff0000	10pct	1	50pct	50pct	7000	350147	357153	349837	57	357470	317	0	2	65
6.1.1	win	2020-04-16	16:03:02	1	1	1	USRTblock	1	USRT	68	600000	#ff0000	10pct	1	50pct	50pct	5000	357473	362486	357153	57	362790	304	0	2	66
6.1.1	win	2020-04-16	16:03:02	1	1	1	USRTblock	1	USRT	69	600000	#ff0000	10pct	1	50pct	50pct	6000	362794	368802	362486	57	369110	308	0	2	67
6.1.1	win	2020-04-16	16:03:02	1	1	1	USRTblock	1	USRT	70	600000	#ff0000	10pct	1	50pct	50pct	6000	369113	375119	368802	57	375374	255	0	2	68
6.1.1	win	2020-04-16	16:03:02	1	1	1	USRTblock	1	USRT	71	600000	#ff0000	10pct	1	50pct	50pct	2000	375379	377384	375119	57	377686	302	0	2	69
6.1.1	win	2020-04-16	16:03:02	1	1	1	USRTblock	1	USRT	72	600000	#ff0000	10pct	1	50pct	50pct	4000	377690	381700	377384	57	381965	265	0	2	70
6.1.1	win	2020-04-16	16:03:02	1	1	1	USRTblock	1	USRT	73	600000	#ff0000	10pct	1	50pct	50pct	5000	381969	386983	381700	57	387273	290	0	2	71
6.1.1	win	2020-04-16	16:03:02	1	1	1	USRTblock	1	USRT	74	600000	#ff0000	10pct	1	50pct	50pct	2000	387276	389283	386983	57	389554	271	0	2	72
6.1.1	win	2020-04-16	16:03:02	1	1	1	USRTblock	1	USRT	75	600000	#ff0000	10pct	1	50pct	50pct	3000	389557	392566	389283	57	392844	278	0	2	73
6.1.1	win	2020-04-16	16:03:02	1	1	1	USRTblock	1	USRT	76	600000	#ff0000	10pct	1	50pct	50pct	7000	392848	399866	392566	57	400117	251	0	2	74
6.1.1	win	2020-04-16	16:03:02	1	1	1	USRTblock	1	USRT	77	600000	#ff0000	10pct	1	50pct	50pct	7000	400121	407132	399866	57	407404	272	0	2	75
6.1.1	win	2020-04-16	16:03:02	1	1	1	USRTblock	1	USRT	78	600000	#ff0000	10pct	1	50pct	50pct	6000	407408	413414	407132	57	413733	319	0	2	76
6.1.1	win	2020-04-16	16:03:02	1	1	1	USRTblock	1	USRT	79	600000	#ff0000	10pct	1	50pct	50pct	4000	413737	417747	413414	57	418101	354	0	2	77
6.1.1	win	2020-04-16	16:03:02	1	1	1	USRTblock	1	USRT	80	600000	#ff0000	10pct	1	50pct	50pct	2000	418105	420113	417747	57	420486	373	0	2	78
6.1.1	win	2020-04-16	16:03:02	1	1	1	USRTblock	1	USRT	81	600000	#ff0000	10pct	1	50pct	50pct	2000	420490	422496	420113	57	422805	309	0	2	79
6.1.1	win	2020-04-16	16:03:02	1	1	1	USRTblock	1	USRT	82	600000	#ff0000	10pct	1	50pct	50pct	3000	422810	425830	422496	57	426267	437	0	2	80
6.1.1	win	2020-04-16	16:03:02	1	1	1	USRTblock	1	USRT	83	600000	#ff0000	10pct	1	50pct	50pct	5000	426271	431279	425830	57	431862	583	0	2	81
6.1.1	win	2020-04-16	16:03:02	1	1	1	USRTblock	1	USRT	84	600000	#ff0000	10pct	1	50pct	50pct	4000	431865	435879	431279	57	436198	319	0	2	82
6.1.1	win	2020-04-16	16:03:02	1	1	1	USRTblock	1	USRT	85	600000	#ff0000	10pct	1	50pct	50pct	8000	436202	444212	435879	57	444502	290	0	2	83
6.1.1	win	2020-04-16	16:03:02	1	1	1	USRTblock	1	USRT	86	600000	#ff0000	10pct	1	50pct	50pct	3000	444506	447510	444212	57	447885	375	0	2	84
6.1.1	win	2020-04-16	16:03:02	1	1	1	USRTblock	1	USRT	87	600000	#ff0000	10pct	1	50pct	50pct	2000	447888	449894	447510	57	450223	329	0	2	85
6.1.1	win	2020-04-16	16:03:02	1	1	1	USRTblock	1	USRT	88	600000	#ff0000	10pct	1	50pct	50pct	8000	450226	458244	449894	57	458559	315	0	2	86
6.1.1	win	2020-04-16	16:03:02	1	1	1	USRTblock	1	USRT	89	600000	#ff0000	10pct	1	50pct	50pct	3000	458562	461576	458244	57	461945	369	0	2	87
6.1.1	win	2020-04-16	16:03:02	1	1	1	USRTblock	1	USRT	90	600000	#ff0000	10pct	1	50pct	50pct	8000	461949	469958	461576	57	470259	301	0	2	88
6.1.1	win	2020-04-16	16:03:02	1	1	1	USRTblock	1	USRT	91	600000	#ff0000	10pct	1	50pct	50pct	7000	470263	477274	469958	57	477548	274	0	2	89
6.1.1	win	2020-04-16	16:03:02	1	1	1	USRTblock	1	USRT	92	600000	#ff0000	10pct	1	50pct	50pct	2000	477552	479557	477274	57	479826	269	0	2	90
6.1.1	win	2020-04-16	16:03:02	1	1	1	USRTblock	1	USRT	93	600000	#ff0000	10pct	1	50pct	50pct	3000	479830	482841	479557	57	483161	320	0	2	91
6.1.1	win	2020-04-16	16:03:02	1	1	1	USRTblock	1	USRT	94	600000	#ff0000	10pct	1	50pct	50pct	3000	483165	486173	482841	57	486457	284	0	2	92
6.1.1	win	2020-04-16	16:03:02	1	1	1	USRTblock	1	USRT	95	600000	#ff0000	10pct	1	50pct	50pct	8000	486460	494473	486173	57	494721	248	0	2	93
6.1.1	win	2020-04-16	16:03:02	1	1	1	USRTblock	1	USRT	96	600000	#ff0000	10pct	1	50pct	50pct	7000	494725	501739	494473	57	502026	287	0	2	94
6.1.1	win	2020-04-16	16:03:02	1	1	1	USRTblock	1	USRT	97	600000	#ff0000	10pct	1	50pct	50pct	5000	502030	507038	501739	57	507348	310	0	2	95
6.1.1	win	2020-04-16	16:03:02	1	1	1	USRTblock	1	USRT	98	600000	#ff0000	10pct	1	50pct	50pct	8000	507352	515371	507038	57	515670	299	0	2	96
6.1.1	win	2020-04-16	16:03:02	1	1	1	USRTblock	1	USRT	99	600000	#ff0000	10pct	1	50pct	50pct	7000	515673	522687	515371	57	522966	279	0	2	97
6.1.1	win	2020-04-16	16:03:02	1	1	1	USRTblock	1	USRT	100	600000	#ff0000	10pct	1	50pct	50pct	4000	522970	526986	522687	57	527254	268	0	2	98
6.1.1	win	2020-04-16	16:03:02	1	1	1	USRTblock	1	USRT	101	600000	#ff0000	10pct	1	50pct	50pct	2000	527258	529269	526986	57	529538	269	0	2	99
6.1.1	win	2020-04-16	16:03:02	1	1	1	USRTblock	1	USRT	102	600000	#ff0000	10pct	1	50pct	50pct	4000	529541	533552	529269	57	534025	473	0	2	100
6.1.1	win	2020-04-16	16:03:02	1	1	1	USRTblock	1	USRT	103	600000	#ff0000	10pct	1	50pct	50pct	5000	534028	539035	533552	57	539281	246	0	2	101
6.1.1	win	2020-04-16	16:03:02	1	1	1	USRTblock	1	USRT	104	600000	#ff0000	10pct	1	50pct	50pct	8000	539284	547301	539035	57	547583	282	0	2	102
6.1.1	win	2020-04-16	16:03:02	1	1	1	USRTblock	1	USRT	105	600000	#ff0000	10pct	1	50pct	50pct	2000	547586	549601	547301	57	550192	591	0	2	103
6.1.1	win	2020-04-16	16:03:02	1	1	1	USRTblock	1	USRT	106	600000	#ff0000	10pct	1	50pct	50pct	7000	550196	557216	549601	57	557527	311	0	2	104
6.1.1	win	2020-04-16	16:03:02	1	1	1	USRTblock	1	USRT	107	600000	#ff0000	10pct	1	50pct	50pct	2000	557530	559549	557216	57	559834	285	0	2	105
6.1.1	win	2020-04-16	16:03:02	1	1	1	USRTblock	1	USRT	108	600000	#ff0000	10pct	1	50pct	50pct	2000	559837	561849	559549	57	562122	273	0	2	106
6.1.1	win	2020-04-16	16:03:02	1	1	1	USRTblock	1	USRT	109	600000	#ff0000	10pct	1	50pct	50pct	6000	562125	568132	561849	57	568397	265	0	2	107
6.1.1	win	2020-04-16	16:03:02	1	1	1	USRTblock	1	USRT	110	600000	#ff0000	10pct	1	50pct	50pct	8000	568401	576415	568132	57	576713	298	0	2	108
6.1.1	win	2020-04-16	16:03:02	1	1	1	USRTblock	1	USRT	111	600000	#ff0000	10pct	1	50pct	50pct	4000	576717	580731	576415	57	581086	355	0	2	109
6.1.1	win	2020-04-16	16:03:02	1	1	1	USRTblock	1	USRT	112	600000	#ff0000	10pct	1	50pct	50pct	3000	581090	584097	580731	57	584380	283	0	2	110
6.1.1	win	2020-04-16	16:03:02	1	1	1	USRTblock	1	USRT	113	600000	#ff0000	10pct	1	50pct	50pct	4000	584384	588397	584097	57	588665	268	0	2	111
6.1.1	win	2020-04-16	16:03:02	1	1	1	USRTblock	1	USRT	114	600000	#ff0000	10pct	1	50pct	50pct	4000	588669	592679	588397	57	593086	407	0	2	112
6.1.1	win	2020-04-16	16:03:02	1	1	1	USRTblock	1	USRT	115	600000	#ff0000	10pct	1	50pct	50pct	6000	593089	599096	592679	57	599449	353	0	2	113
6.1.1	win	2020-04-16	16:03:02	1	1	1	USRTblock	1	USRT	116	600000	#ff0000	10pct	1	50pct	50pct	4000	599453	-1	599096	0	599634	0	1	3	114
